%time;field.orientation.x;field.orientation.y;field.orientation.z;field.orientation.w;field.angular_velocity.x;field.angular_velocity.y;field.angular_velocity.z;field.linear_acceleration.x;field.linear_acceleration.y;field.linear_acceleration.z
1441927234767850000;-0.0028570223;0.0139538797;-0.4186486042;0.9080366033;-0.0012297157;0.0029081498;-0.0020150081;0.3964556277;0.166520422;8.6132666469
1441927234780780000;-0.002876282;0.0139533128;-0.418664309;0.9080293104;-0.0005825083;0.0007831431;-0.0010747229;0.3970694706;0.1991804313;8.6128887177
1441927234800850000;-0.002860312;0.0139460308;-0.4186725023;0.9080256949;-0.0018783077;0.0026143748;-0.0004004217;0.3964729324;0.2704374652;8.6977533937
1441927234820830000;-0.0028401951;0.0139271462;-0.4186729759;0.9080258296;-0.001288015;0.0020013484;-0.0008460116;0.3964981958;0.2537413508;8.6043283582
1441927234840840000;-0.0028364182;0.0139350946;-0.418680787;0.9080221178;0.000239147;0.0024671168;-0.0019373414;0.3965632528;0.1735815503;8.6135972619
1441927234860830000;-0.0028404434;0.0139467215;-0.4186963959;0.9080147294;0.0002216768;0.0035394454;-0.000150837;0.3969556026;0.1799984429;8.6149559379
1441927234880790000;-0.0028598254;0.0139461306;-0.4187041808;0.9080110879;-0.0009315524;0.0013741245;-0.0007062396;0.396710635;0.1812048081;8.6297658563
1441927234900770000;-0.0028793286;0.0139455147;-0.4187040462;0.9080110978;-0.001129677;0.0019585834;0.000605437;0.3950897232;0.18006538;8.6191382766
1441927234920810000;-0.0028915211;0.0139607462;-0.4187036937;0.9080109876;-0.0008552758;0.0025287235;-5.3239753745e-05;0.3954558603;0.1802006964;8.6112905502
1441927234940810000;-0.0029109025;0.0139601557;-0.4187114787;0.9080073448;-0.0010943498;0.0018948158;-0.0010403439;0.397085242;0.1804509394;8.6124774933
1441927234961260000;-0.0029029788;0.0139565018;-0.4187116005;0.9080073702;-0.0009427736;0.002029996;-6.98361569232e-05;0.3970274135;0.2635248508;8.6132193327
1441927234981310000;-0.0028954233;0.0139723994;-0.4187272515;0.9079999325;-0.001005896;0.0035564969;-0.0017197286;0.3959694527;0.1718743887;8.6130896568
1441927235001230000;-0.0029070028;0.01396813;-0.4187272387;0.9079999671;0.0011091305;0.0019452297;0.0004891302;0.3973662794;0.1798773646;8.61345824
1441927235021400000;-0.0029148046;0.0139718095;-0.4187350362;0.9079962896;-0.0005455599;0.0025565798;-0.0015222963;0.3954476826;0.1807367045;8.6133145452
1441927235041230000;-0.0029226068;0.0139754893;-0.4187428337;0.9079926119;-0.0012907988;0.0026352239;-7.71842887233e-05;0.3962309584;0.2138957214;8.6129079938
1441927235061190000;-0.0029383322;0.0139828233;-0.4187505091;0.9079889085;-0.0008841653;0.0014575198;-0.0007558402;0.3960516684;0.167671058;8.5970308781
1441927235081140000;-0.0029505234;0.0139980551;-0.4187501554;0.9079887974;-0.0004720966;0.0038817885;-4.97065506003e-05;0.396442923;0.1765574872;8.6071035385
1441927235101130000;-0.0029545475;0.0140096835;-0.4187657621;0.9079814073;-0.0003310962;0.0025325268;-0.0011046598;0.3965169974;0.1818662938;8.6156691551
1441927235121100000;-0.0029740503;0.0140090699;-0.4187656274;0.9079814152;-0.0011791411;0.001068607;-0.0001381338;0.3962792218;0.1787707936;8.6141521812
1441927235141430000;-0.0029739281;0.0140090959;-0.4187735467;0.9079777627;-0.0007231086;0.0033323352;-0.0007310516;0.3960911334;0.2484895878;8.611596632
1441927235161280000;-0.0029738054;0.0140091219;-0.4187814961;0.9079740963;-0.0024868947;0.0020172433;-0.0007946766;0.3960929953;0.184520907;8.6136545062
1441927235181330000;-0.0029968433;0.0140006108;-0.4187893907;0.9079705106;-0.0001232612;0.0007667015;-0.0014007346;0.3964600451;0.1761100654;8.613290596
1441927235201350000;-0.0030046446;0.0140042916;-0.4187971877;0.9079668317;-0.0004177569;0.0030841083;-0.0008924068;0.3957385041;0.1815620922;8.6132140756
1441927235221230000;-0.0030089116;0.0140158694;-0.4187969554;0.9079667461;-0.0015751212;0.0021147677;-0.0004709043;0.3973938428;0.177207838;8.6669945121
1441927235241680000;-0.0030282926;0.014015282;-0.41880474;0.9079631;0.0001511645;0.0001173653;-0.0007169866;0.3965008244;0.180421368;8.5934326649
1441927235261050000;-0.0030471855;0.0139951685;-0.4188049484;0.907963251;-0.0010543816;0.0007042731;-0.0003979289;0.3948457778;0.1956409045;8.6177982926
1441927235281210000;-0.0030356052;0.0139994367;-0.4188049604;0.9079632184;-0.0009686101;0.0021499783;0.0005177308;0.3811032757;0.2522749584;8.6134915352
1441927235301180000;-0.0030044003;0.014004344;-0.4188130259;0.9079595262;-0.0001270798;0.0021332237;-0.0011435368;0.3583607502;0.2483169604;8.6120656848
1441927235321220000;-0.0029690499;0.0139976478;-0.4188134048;0.907959571;0.0004831718;0.0021556862;0.0009665461;0.3805571914;0.260196029;8.6119126439
1441927235341290000;-0.0029452794;0.0139866832;-0.4188137711;0.9079596484;-0.0015824317;0.0017866153;-0.0008291186;0.4025470711;0.2417777848;8.6124821663
1441927235361010000;-0.0029530807;0.0139903637;-0.4188215681;0.9079559698;-3.31386682288e-05;0.002664914;-0.0002644164;0.4024590142;0.1679299898;8.6136066079
1441927235381450000;-0.0029530807;0.0139903637;-0.4188215681;0.9079559698;-0.0005643319;0.0026817145;5.63013974415e-05;0.3983887911;0.1815983992;8.6286560178
1441927235401200000;-0.0029768511;0.0140013285;-0.4188212017;0.9079558922;-0.0021900757;0.0019808976;-0.0003093591;0.396764411;0.1805878986;8.6188941121
1441927235421340000;-0.0029925761;0.0140086646;-0.4188288763;0.9079521872;-0.0006992609;0.0012504799;-0.0008310024;0.3969406344;0.1791863076;8.6196645737
1441927235441290000;-0.0030154909;0.014000182;-0.4188447201;0.9079449334;-0.0005625168;0.0020618578;-0.0005539688;0.3797609918;0.1794823132;8.6185068369
1441927235461310000;-0.003016466;0.0140392347;-0.4188598726;0.907937337;-0.0008141664;0.0017170697;-0.0018980549;0.307320118;0.1793783389;8.6052086353
1441927235481180000;-0.0030139058;0.0140861842;-0.4188669938;0.9079333331;-0.0005071903;0.0024264282;-2.7636997073e-05;0.3229605533;0.1810876727;8.6144868851
1441927235501210000;-0.0030180489;0.0140977887;-0.418874679;0.9079295936;-0.0005905554;0.0021450878;-0.000866574;0.4030128747;0.179731096;8.6127502799
1441927235521190000;-0.0030295062;0.0140935476;-0.4188825856;0.9079259736;-0.0006518078;0.0007754369;-0.0013668998;0.3881691135;0.1790052105;8.6133723736
1441927235541310000;-0.0030262113;0.0141210233;-0.4188979978;0.9079184469;-0.0008383865;0.0010479474;-0.0006191423;0.3726564556;0.1800040651;8.6132619739
1441927235561290000;-0.003041449;0.0141088346;-0.4188980964;0.90791854;-0.0006732357;0.0017940905;0.0001097345;0.3929733269;0.1946753815;8.6130849838
1441927235581140000;-0.0030254796;0.0141015497;-0.4189062613;0.9079149393;-0.0004634013;0.0024849615;-0.0010583563;0.3981413774;0.2550468531;8.6124628902
1441927235601600000;-0.0030253566;0.014101576;-0.41891418;0.9079112856;-0.0011927158;0.0023368024;0.0002826108;0.3980947569;0.1980023962;8.613118279
1441927235621250000;-0.0030216995;0.0141094978;-0.4189140692;0.9079112258;-0.0013907208;0.0041571154;-0.0008391858;0.3970375262;0.216736488;8.6128887177
1441927235641190000;-0.0029856186;0.0140833235;-0.4189227136;0.907907763;-7.05138049543e-05;0.0023056158;-0.0013138056;0.3976595104;0.2684632853;8.6122380018
1441927235661540000;-0.0029616045;0.0140724079;-0.4189389193;0.9079005332;-0.0003597868;0.0018573292;-0.0014394419;0.396259471;0.2607886974;8.595825243
1441927235681200000;-0.0029449049;0.0140456473;-0.4189553749;0.9078934085;-2.86285060482e-05;0.0003830963;-0.0018026521;0.396631705;0.2391913135;8.606323731
1441927235701200000;-0.0029246716;0.0140267819;-0.4189637707;0.9078898912;-0.0013864705;0.0020915433;8.55331296277e-05;0.3962410711;0.2512849752;8.614802897
1441927235721210000;-0.0028966381;0.0140042348;-0.4189643695;0.9078900528;-0.0004377685;0.0015628306;-0.0006576909;0.3971449323;0.2605806574;8.6479590297
1441927235741360000;-0.0028805484;0.0139969728;-0.4189804508;0.9078827948;-0.0010559603;0.0030334146;-0.0012005149;0.3976471342;0.2572183397;8.598375535
1441927235761260000;-0.0028488572;0.0139823476;-0.4189809391;0.9078828948;-0.0013196146;0.0025655107;-0.0002515896;0.3977517292;0.2568752754;8.6090130448
1441927235781250000;-0.0028213088;0.0139793256;-0.4189891146;0.9078792544;-0.0001276691;0.0031806174;-0.0013920678;0.3973886587;0.2577376455;8.614970541
1441927235801230000;-0.0027894964;0.0139647247;-0.4189975207;0.9078756979;-6.79339286232e-05;0.0014743321;-0.0004709116;0.3974050142;0.2565633707;8.6115487337
1441927235821320000;-0.0027773088;0.0139494892;-0.4189978728;0.907875807;-0.0021357;0.0017109239;-0.0006034865;0.3965278037;0.2563742235;8.6121521354
1441927235841550000;-0.0027649993;0.0139342792;-0.419006173;0.9078722474;0.0002177757;0.0018123244;-0.0009988644;0.3957183883;0.2417772189;8.6125440836
1441927235861120000;-0.0027251432;0.0139160441;-0.4190226172;0.907865058;-0.0006388429;0.0026006345;-0.0005709771;0.3974823743;0.2587720223;8.6123145223
1441927235881310000;-0.0027013751;0.0139050741;-0.4190229814;0.9078651291;0.0005232969;0.0021244055;-0.0005289372;0.3975817122;0.2405494053;8.6126258612
1441927235901340000;-0.0026934526;0.0139014174;-0.4190231027;0.9078651526;-0.0011948994;0.0013668406;-4.19687705728e-05;0.3634723231;0.2365341812;8.6312781572
1441927235921240000;-0.0026389643;0.0139148674;-0.4190391162;0.9078577154;0.0011662453;0.0014311443;-0.0015581777;0.3137594081;0.2539202392;8.6053091049
1441927235941170000;-0.0026042214;0.0139276627;-0.4190391587;0.9078575999;7.91868660914e-06;0.0015156176;-7.30110355578e-06;0.3821885079;0.2576443497;8.6206791997
1441927235961150000;-0.0025797264;0.0138972144;-0.4190477767;0.9078541586;-0.0010782569;0.0009536403;-0.0003605532;0.3915347353;0.258680132;8.610735631
1441927235981280000;-0.0025638815;0.0138899007;-0.4190480192;0.9078542035;-0.0008801602;0.0030885121;-0.0005439958;0.3975536741;0.25713512;8.612941289
1441927236001430000;-0.0025516948;0.0138746646;-0.4190483682;0.9078543097;-0.0006005859;0.0008671507;0.0002882113;0.3954949968;0.258108693;8.6121568084
1441927236021110000;-0.0025235414;0.0138521378;-0.4190569069;0.907850791;-0.0009497694;0.0031879697;0.0002552057;0.3962233283;0.2569221333;8.6123191953
1441927236041290000;-0.0025112345;0.0138369237;-0.4190651729;0.9078472416;-0.0001347131;0.0007168567;-0.0010804576;0.3967686094;0.2041076213;8.6131282091
1441927236061120000;-0.0024763705;0.0138497396;-0.4190731352;0.9078434665;0.0005388961;0.0026227172;-0.0009061839;0.3135735102;0.2766693909;8.611764276
1441927236081140000;-0.0024458917;0.0138741121;-0.4190729531;0.907843261;-0.0008805654;0.001272142;0.001136937;0.335603293;0.217593601;8.5590557098
1441927236101170000;-0.0024501553;0.0138856913;-0.4190727259;0.9078431774;-0.0009636751;0.0025593168;-0.0007224559;0.4093437366;0.1858716972;8.6332542539
1441927236121150000;-0.0024616153;0.0138814477;-0.419080629;0.9078395631;-0.0011603923;0.0013915747;-0.0006920332;0.3934264258;0.2385864332;8.6079838157
1441927236141150000;-0.0024730755;0.0138772055;-0.419088532;0.9078359485;9.93737487045e-05;0.0014373404;-0.0012622066;0.3957826421;0.1921579465;8.6120896339
1441927236161130000;-0.0024766134;0.013869305;-0.4190965562;0.9078323553;-0.0008603606;0.002230356;-0.000691975;0.3958272912;0.1987687323;8.6134103417
1441927236181150000;-0.0024685697;0.0138656691;-0.4191045952;0.9078287215;-0.0023420112;0.0020909254;0.0002608546;0.3976796992;0.275874177;8.6120802879
1441927236201060000;-0.0024606475;0.0138620117;-0.4191047162;0.9078287431;-0.0006403841;0.0023919022;-0.0008390213;0.3972322226;0.2550759681;8.6121708274
1441927236221200000;-0.002440298;0.0138431604;-0.4191210508;0.9078215445;-0.0007968659;0.0018454683;-0.0010557328;0.3972566098;0.2544179142;8.6124628902
1441927236241260000;-0.0024243326;0.0138358663;-0.4191292102;0.9078179314;-0.0014713328;0.0024110271;-0.0013684752;0.3970843658;0.2573832091;8.6123431444
1441927236261190000;-0.002404104;0.0138169935;-0.4191375956;0.9078144012;-0.0008725003;0.0029712142;-0.0012237057;0.3970948435;0.2587165486;8.6476436019
1441927236283320000;-0.002396182;0.0138133358;-0.4191377161;0.9078144221;-0.0012744343;0.0022924155;-0.0009606359;0.3969959073;0.2582250617;8.6527634621
1441927236300840000;-0.0023881394;0.0138096991;-0.4191457545;0.9078107873;-0.0010209134;0.0008211145;-0.0002683774;0.3967806935;0.2572385103;8.6048499823
1441927236320710000;-0.0023680322;0.0137908039;-0.4191462209;0.9078109118;-0.0008424866;0.0020019477;-0.0013123493;0.3969130345;0.2422698922;8.6414991856
1441927236340810000;-0.0023874154;0.0137902194;-0.4191540031;0.9078072768;6.29909357183e-05;0.0016899737;-0.0004317004;0.3960000098;0.1874010291;8.6131661773
1441927236380900000;-0.0023946141;0.0137743967;-0.419162131;0.9078037452;-0.00170064;0.0011326792;0.0002113506;0.3970692515;0.2526732955;8.6151714802
1441927236401030000;-0.0023540399;0.0137366682;-0.4191868442;0.9077930117;-3.31985076733e-05;0.000887861;-0.0013272828;0.3976300851;0.2596244987;8.612438941
1441927236421190000;-0.0023338139;0.0137177936;-0.4191952257;0.907789479;-0.0003496152;0.0019492344;0.0004564398;0.3965589449;0.25721175;8.6124196649
1441927236441430000;-0.002325892;0.0137141355;-0.4191953454;0.9077894994;0.0003074448;0.0017313231;-0.0005197951;0.3964938149;0.2555681486;8.6122812271
1441927236461260000;-0.0023179697;0.0137104772;-0.419195465;0.9077895196;-0.0005707271;0.0016845465;-0.0002987226;0.3966589764;0.2580558844;8.6124628902
1441927236481300000;-0.002297625;0.0136916212;-0.419211763;0.9077823298;-0.0019929521;0.0009924211;6.42444939561e-05;0.3978722051;0.2579071697;8.6123723507
1441927236501150000;-0.0022772801;0.0136727643;-0.4192280903;0.9077751251;-0.0008186214;0.0008323226;-0.0011014687;0.3962113902;0.2578361254;8.6111421824
1441927236521360000;-0.0022967836;0.0136721608;-0.4192279554;0.9077751474;-0.0014419068;0.0021530995;-0.0008670393;0.3958408721;0.1675555654;8.63462286
1441927236541330000;-0.0023045861;0.0136758393;-0.4192357536;0.9077714708;-0.0017984441;0.0012895056;-0.0006118622;0.3967626952;0.2202031817;8.604979074
1441927236561330000;-0.0023002053;0.0136642793;-0.4192438942;0.9077678964;-0.0008006872;0.0022764532;-0.0011937115;0.39742053;0.251707444;8.6086111665
1441927236581060000;-0.0022763208;0.0136533233;-0.4192521692;0.9077642997;-0.0002328192;0.0017387937;-0.0016395814;0.3973818682;0.2578627761;8.6146784782
1441927236601130000;-0.0022559778;0.0136344651;-0.4192684646;0.9077571077;-0.0011111473;0.0018235151;-0.0006622067;0.3966346256;0.2566732045;8.61175493
1441927236621150000;-0.0022436758;0.0136192467;-0.419276723;0.9077535522;-0.0006280972;0.0018055895;-0.0006718044;0.3967658713;0.242967977;8.6816852689
1441927236641110000;-0.0022558588;0.0136344848;-0.4192763819;0.9077534508;0.0002206556;0.001355887;-0.000497591;0.3969978057;0.1753125332;8.6590463162
1441927236661070000;-0.0022751242;0.013633922;-0.4192921121;0.9077461455;-0.0013367736;0.0021912112;-0.0008549835;0.3964183167;0.1893521179;8.593456614
1441927236681360000;-0.0022629413;0.0136186825;-0.4192924533;0.9077462471;0.0006463442;0.0015216754;-0.0004723254;0.3962751329;0.2636407997;8.6186166525
1441927236701150000;-0.0022469796;0.0136113842;-0.4193006082;0.9077426294;-0.0005450458;0.0008325875;0.0001170831;0.3973190017;0.2537623245;8.6134821892
1441927236721180000;-0.0022230962;0.0136004262;-0.4193088816;0.9077390308;-0.0007380978;0.0039369817;-0.0008332627;0.3972977176;0.2578752071;8.611582613
1441927236741140000;-0.0022073719;0.0135930887;-0.4193012017;0.9077427266;-0.0015323229;0.0008673519;-8.71174292587e-05;0.3971671656;0.2568119891;8.6127263308
1441927236761160000;-0.0021993319;0.0135894489;-0.4193092375;0.9077390887;-0.0008920224;0.0034746694;-0.001091494;0.3973116271;0.2572766975;8.6126544833
1441927236781200000;-0.0021753303;0.0135785092;-0.4193254274;0.9077318315;0.0002274854;0.0019035135;-0.0012986511;0.3972866923;0.2572392222;8.6123384714
1441927236801260000;-0.0021514474;0.01356755;-0.4193336998;0.9077282308;0.0006917244;0.0029884098;-0.0007398268;0.3969155535;0.2403418947;8.6125540137
1441927236821380000;-0.002131825;0.0135681712;-0.4193417816;0.9077245343;-0.0010415097;0.0018921122;-0.0007191277;0.39705965;0.2501004599;8.6124821663
1441927236841620000;-0.0021196429;0.013552931;-0.4193421204;0.907724634;0.0002340452;0.0011005719;0.0007966891;0.3960325383;0.1914190825;8.6132286787
1441927236861260000;-0.0021312253;0.0135486704;-0.4193421043;0.907724678;-0.0011959159;0.0011679964;-0.0006246986;0.3956357345;0.2087341875;8.6129991174
1441927236881090000;-0.0020994216;0.0135340509;-0.419350494;0.9077210943;0.000267698;0.0015230108;-0.0010194576;0.3972004242;0.2725499552;8.6286846399
1441927236901020000;-0.0020834606;0.0135267499;-0.4193586471;0.9077174733;-0.0004917255;0.0026775102;-0.0002610148;0.3976456374;0.2597318318;8.6186259985
1441927236921270000;-0.0020676181;0.0135194308;-0.4193588832;0.9077175095;-0.0002490813;0.0020152154;-0.0001602669;0.3972262718;0.2569214944;8.6086444616
1441927236941250000;-0.0020712793;0.0135115097;-0.4193589847;0.9077175722;0.0002440807;0.001122809;-0.0004360838;0.3777565286;0.189600426;8.6158747673
1441927236961250000;-0.0020792005;0.0135151692;-0.4193588668;0.9077175541;-0.0009350275;0.0023868787;0.000500954;0.4022815496;0.1878704105;8.612429595
1441927236981300000;-0.0021029647;0.0135261481;-0.4193585128;0.9077174993;-0.0011949526;0.0012484393;0.0005623374;0.3885123603;0.2115733843;8.6131661773
1441927237001450000;-0.002090665;0.013510926;-0.4193667674;0.9077139408;-0.0007199556;0.0019937168;-0.000997398;0.3992401905;0.2625300851;8.612257278
1441927237021260000;-0.0020747048;0.0135036248;-0.4193749201;0.9077103195;-0.001352133;0.0016039308;-0.0004524395;0.3965397783;0.2630986035;8.6122812271
1441927237041280000;-0.0020552007;0.0135042262;-0.4193750544;0.9077102929;-0.0007368867;0.0037572355;-0.0005533686;0.3970141612;0.2548526861;8.612434268
1441927237061280000;-0.0020508232;0.0134926634;-0.4193831904;0.9077067157;-0.0017253251;0.0017864551;-0.000764878;0.3981644869;0.2574288987;8.6123577476
1441927237081380000;-0.0020312018;0.0134932826;-0.4193912415;0.9077030308;0.0006939743;0.003050386;-0.0002202778;0.3963305518;0.2240661681;8.6128075242
1441927237101230000;-0.0020505873;0.0134926992;-0.4193990543;0.907699386;-4.01854043658e-06;0.0007620538;-0.0012876796;0.3960738286;0.1736209422;8.6134056687
1441927237121650000;-0.0020741155;0.0135037153;-0.4194145345;0.907692016;-0.0013064055;0.0027796255;-0.0013842228;0.395126085;0.1746750697;8.6134056687
1441927237141300000;-0.002070336;0.0135116543;-0.4194223498;0.9076882953;0.0005669447;0.0034450948;-0.0009650882;0.397592847;0.2498238217;8.6124868393
1441927237161310000;-0.0020624151;0.0135079941;-0.4194224677;0.9076883133;-0.0028602431;0.0013703261;4.45491182886e-05;0.3985337272;0.2633256275;8.6123051763
1441927237181270000;-0.0020421957;0.0134891106;-0.4194308391;0.9076847716;0.0012739453;0.0008297558;0.0002240865;0.3961227857;0.2590477113;8.6123530746
1441927237201200000;-0.0020262362;0.0134818079;-0.4194389912;0.9076811488;-0.0020203478;0.0028029195;-0.0011244328;0.3959164433;0.2571079582;8.6123577476
1441927237221370000;-0.0020023555;0.0134708444;-0.4194472606;0.9076775432;0.0001470746;0.0020398814;-0.001004602;0.397543963;0.2568245843;8.6123770237
1441927237241230000;-0.0019790714;0.0134793823;-0.419455241;0.9076737797;-0.0007296593;0.0020873677;-0.0016402966;0.329932785;0.2565651596;8.5432264924
1441927237261230000;-0.0019478678;0.0134842586;-0.4194633091;0.9076700463;0.0010118479;0.0012394246;0.0002184184;0.394618699;0.256043645;8.5413175702
1441927237281240000;-0.0019477502;0.0134842756;-0.4194712257;0.9076663877;-0.000688137;0.0025801165;-0.0014806246;0.3867836773;0.1889532879;8.602265811
1441927237301240000;-0.0019711594;0.0134953087;-0.419494622;0.9076553604;-0.001214221;0.002279418;-0.0013277541;0.3966713525;0.1873734474;8.6044095516
1441927237321410000;-0.0019711594;0.0134953087;-0.419494622;0.9076553604;-0.000418102;0.0017470768;-0.0005517143;0.3990569212;0.2466769915;8.6142000794
1441927237341510000;-0.001966901;0.0134837275;-0.4194948405;0.9076554408;-0.0005811979;0.0013994439;0.0004955943;0.3958719768;0.2489464104;8.6134775162
1441927237361460000;-0.0019547215;0.0134684864;-0.4194951764;0.9076555382;-0.0015767659;0.0013172995;-0.0006040054;0.3964065611;0.2592688575;8.6118168473
1441927237381300000;-0.0019388796;0.0134611647;-0.4194954114;0.9076555721;-4.0735465623e-05;0.0024695061;4.2745027409e-05;0.3968817107;0.243123975;8.6127070546
1441927237401300000;-0.0019582664;0.0134605829;-0.4195031934;0.9076519425;-0.0007109273;0.0012952769;-0.0002517684;0.3819339387;0.1667460587;8.6133963227
1441927237421350000;-0.0019630029;0.0134916823;-0.4195106028;0.9076480459;-0.0001099959;0.0010512825;0.000221655;0.3403392732;0.1836509433;8.613118279
1441927237441530000;-0.0019939721;0.0134868425;-0.4195183677;0.9076444614;-0.0003862487;0.0009563598;-0.0021185099;0.4042789668;0.1985020608;8.6131661773
1441927237461290000;-0.0019859339;0.0134831989;-0.4195264017;0.9076408198;-4.10474613466e-05;0.0030974998;-0.0002264716;0.4009020641;0.2237713307;8.6128121972
1441927237481300000;-0.0019780129;0.0134795377;-0.4195265194;0.907640837;-0.0011876375;0.0018982808;-5.56085716355e-05;0.3973146208;0.2647396859;8.6122765541
1441927237501210000;-0.001958392;0.0134801522;-0.4195345702;0.9076371492;0.0001632026;0.0027088686;-0.0007255771;0.3977942608;0.2488186147;8.6124774933
1441927237521310000;-0.0019381748;0.0134612662;-0.4195429397;0.9076336042;-0.0005094088;0.0021085162;-0.0012241667;0.3967238873;0.258529738;8.6123530746
1441927237541510000;-0.0019497585;0.0134570072;-0.4195429227;0.9076336504;-0.0015431307;0.0004555453;-0.0001221507;0.3959431671;0.1892755426;8.6132333517
1441927237561360000;-0.0019653646;0.0134643638;-0.4195585202;0.9076262977;-0.0014366138;0.0023003119;-0.0012146523;0.3960085891;0.2377807233;8.6126352072
1441927237581180000;-0.0019731671;0.0134680424;-0.4195663491;0.9076226072;-0.0002990991;0.0036849858;-0.0010420312;0.3963416867;0.1879034866;8.6132479549
1441927237601400000;-0.0019968112;0.0134790441;-0.4195739125;0.9076188958;-0.0010779365;0.0006948993;-0.0001034336;0.3976562247;0.1786204178;8.6133530974
1441927237621300000;-0.0020242358;0.0134821084;-0.4195736606;0.907618906;-0.001137865;0.0015313291;-0.0001037798;0.3957842484;0.1822383635;8.6133291483
1441927237641590000;-0.0020400766;0.0134894312;-0.4195734252;0.9076188706;0.0001344812;0.0022540199;-0.0002594835;0.3952123895;0.2108542345;8.6129465461
1441927237661490000;-0.0020278984;0.0134741891;-0.4195737616;0.9076189687;-0.0009424028;0.0010557789;0.0003498435;0.397839202;0.2639120713;8.6823786259
1441927237681290000;-0.0020235231;0.0134626249;-0.4195818963;0.9076153896;-0.0003693945;0.0010650744;-0.0016347757;0.3963110931;0.1945000526;8.5995624781
1441927237701380000;-0.0020269511;0.013454741;-0.4195978293;0.907608133;-0.0003125759;0.0017875107;-0.0004489324;0.3969224535;0.2694951613;8.6145014882
1441927237721480000;-0.0020184369;0.0134315774;-0.4195982656;0.9076082933;-0.0020566532;0.0011801161;-0.0007257888;0.397150299;0.2552447438;8.6127310038
1441927237741410000;-0.0020182026;0.0134316126;-0.4196140976;0.9076009738;0.0001128096;0.0019611665;-0.0013439632;0.3961328618;0.1877626576;8.6138460994
1441927237761340000;-0.0019985808;0.0134322264;-0.4196221775;0.9075972725;0.0007914052;0.003431837;-0.00085482;0.3979551874;0.2715181522;8.6119032979
1441927237781280000;-0.0019862868;0.013417;-0.4196304283;0.90759371;-0.001036318;0.0001944387;-0.0011420157;0.397823029;0.254024031;8.6123816967
1441927237801440000;-0.0019776562;0.0133938543;-0.4196387788;0.9075902098;-0.0003551075;0.0012113722;-0.0008289984;0.396049697;0.2553743649;8.6124774933
1441927237821330000;-0.0019618154;0.0133865301;-0.4196390125;0.9075902441;-0.0013314834;0.0018474125;-2.27596607438e-05;0.3959423639;0.258412566;8.6123291254
1441927237841400000;-0.0019499982;0.0133908221;-0.419654861;0.9075828783;-0.0005436301;0.0030900026;-0.000866143;0.3975743376;0.2241424877;8.6128121972
1441927237861250000;-0.0019736419;0.013401826;-0.4196624261;0.9075791668;-0.0011329034;0.0028942577;-0.0020160829;0.3978380702;0.1893509496;8.6132333517
1441927237881330000;-0.0019857017;0.0134170866;-0.4196700074;0.9075754093;-0.0002015771;0.0027884784;0.000386355;0.3963676438;0.1958915673;8.6131521583
1441927237901370000;-0.0019734077;0.0134018605;-0.4196782878;0.9075718322;-0.0007000307;0.0019591427;-0.0013604171;0.3965809591;0.2535656933;8.612424922
1441927237921640000;-0.0019891307;0.0134092025;-0.4196859695;0.9075681372;0.000348325;0.001689299;-0.0005473611;0.395530957;0.1800589181;8.6133431673
1441927237941670000;-0.0019730571;0.0134019121;-0.4197020348;0.9075608507;-0.0015232665;0.001820616;-0.0016764817;0.3972397067;0.2722762741;8.6121760845
1441927237961390000;-0.0019688008;0.0133903296;-0.4197022519;0.9075609305;-0.001536849;0.0014970624;0.0001866738;0.396945782;0.2531208817;8.612434268
1441927237981510000;-0.0019645446;0.0133787483;-0.4197024688;0.9075610102;-0.0014302266;0.0012126853;-0.0002946886;0.3967282318;0.2561643217;8.6124009728
1441927238001410000;-0.0019406684;0.0133677775;-0.4197107345;0.9075574007;-0.0007177958;0.0008487236;-0.0006922891;0.3968710139;0.2568729937;8.6123910427
1441927238021450000;-0.0019248282;0.0133604521;-0.4197109678;0.9075574345;-0.0008649474;0.003079815;-0.0002105411;0.3631432414;0.2565686278;8.612252605
1441927238041310000;-0.0019052083;0.0133610622;-0.4197190169;0.9075537445;0.000280784;0.0023572538;-0.0004052357;0.3854304776;0.2578736372;8.6812401652
1441927238061200000;-0.0018894847;0.0133537201;-0.4197113344;0.9075574383;-0.0007383732;0.0016507404;0.0008806153;0.4143385209;0.2567020457;8.5988346577
1441927238081160000;-0.0018815649;0.0133500575;-0.419711451;0.9075574547;-0.0006824605;0.0023391204;-0.0005372807;0.3902379036;0.2579917766;8.6148414493
1441927238101220000;-0.0018614686;0.0133311506;-0.4197118995;0.9075575666;0.0003419106;0.0023149975;0.0001333409;0.3948405936;0.2570832789;8.6126831055
1441927238121310000;-0.0018375929;0.0133201787;-0.4197201639;0.9075539544;-0.0010767284;0.0020957617;-0.0015024845;0.3973290414;0.2563606791;8.6129751682
1441927238141400000;-0.0018296726;0.0133165158;-0.4197202802;0.9075539704;-0.0004588071;0.0017966629;-4.45866015005e-05;0.3977848418;0.2572835609;8.6120896339
1441927238161230000;-0.0018172647;0.0133013024;-0.4197364725;0.9075467297;-0.002034992;0.0020535444;-0.0014265636;0.3971304387;0.2580433987;8.6123670936
1441927238181310000;-0.001809229;0.0132976554;-0.4197445041;0.9075430846;-0.0003007498;0.0025322703;-0.0005105967;0.3967298746;0.2570465885;8.6124103189
1441927238221320000;-0.0017768427;0.0132635178;-0.4197531959;0.907539628;-0.0008102833;0.000692219;-0.0013927559;0.3964246325;0.2559397254;8.6123863697
1441927238241520000;-0.0017724719;0.0132519507;-0.4197613252;0.9075360456;-0.0018486769;0.0013982905;-0.0008559809;0.3969945565;0.2578981705;8.6123863697
1441927238261360000;-0.0017565167;0.0132446397;-0.4197694719;0.9075324152;-0.0003155019;0.0017164018;-0.0004495061;0.3969495788;0.2579860814;8.6123816967
1441927238281240000;-0.0017443416;0.0132293948;-0.4197698008;0.9075325089;-1.67218964046e-06;0.0019292338;0.0002588381;0.3977463625;0.2567080513;8.6123816967
1441927238301360000;-0.0017283866;0.0132220834;-0.419777947;0.907528878;-0.0004812683;0.0026442609;-0.0012712681;0.3970618404;0.2568860635;8.6123816967
1441927238321320000;-0.0017045126;0.0132111086;-0.4197862083;0.9075252617;7.11055471854e-05;0.002278184;-0.0017578183;0.3973739825;0.2569523983;8.6123816967
1441927238341050000;-0.0016884422;0.0132038114;-0.4198022996;0.9075179545;-0.0014655884;0.0010889806;-0.0002214168;0.3637130193;0.2570188608;8.612257278
1441927238361300000;-0.0016858425;0.0132507481;-0.4198094964;0.9075139461;-0.0002255332;0.0013934839;-0.0008170838;0.3129122801;0.1740072135;8.5978153586
1441927238381330000;-0.0017065262;0.0132891582;-0.4198087397;0.9075136958;0.0001113676;0.0022435179;4.09721413844e-05;0.3812332436;0.1954897985;8.5221383929
1441927238401210000;-0.0016900974;0.01326233;-0.419809283;0.9075138677;-8.52975104182e-06;0.0005426062;-0.000211556;0.3917513728;0.2703398068;8.6223538876
1441927238421320000;-0.0016821779;0.0132586665;-0.4198093988;0.9075138824;-0.0007148015;0.0011805408;-7.89519570067e-05;0.3935678937;0.2499526396;8.6167503715
1441927238441310000;-0.0016741424;0.0132550174;-0.4198174296;0.9075102355;-0.0001056218;0.0025027706;-0.0006706316;0.397583136;0.2519238442;8.6109938145
1441927238461260000;-0.0016618526;0.0132397865;-0.4198256735;0.9075066667;-0.0003518465;0.0012120627;-0.0002983776;0.3982731707;0.2574065011;8.6114295721
1441927238481210000;-0.0016379786;0.0132288096;-0.4198339352;0.9075030482;-0.0019329354;0.002432956;-0.0005835395;0.3969406344;0.2567735646;8.6124821663
1441927238501360000;-0.0016292394;0.0132056722;-0.4198502205;0.9074958667;-0.0005417682;0.002824243;-0.0010563405;0.3815640047;0.2580441654;8.6121807575
1441927238521420000;-0.0016022895;0.0132221149;-0.4198580751;0.9074920414;-0.000495152;0.0018267753;-0.0010232103;0.3407464452;0.2571104225;8.6122140527
1441927238541370000;-0.0015898856;0.0132068966;-0.4198742326;0.9074848092;0.0002814098;0.0011653262;-0.0011836383;0.4064757898;0.2564619884;8.6124009728
1441927238561330000;-0.0015660124;0.0131959179;-0.4198824932;0.9074811884;-0.0003243702;0.001754806;-0.0014152756;0.4018697046;0.2570450917;8.6123863697
1441927238581030000;-0.0015774826;0.0131916769;-0.4198903896;0.9074775765;5.76023013971e-05;0.0010074796;-0.0001639072;0.3949209109;0.1729832049;8.6134342909
1441927238601270000;-0.0015968715;0.0131911002;-0.419898171;0.9074739505;-0.0006112707;0.0017620078;-0.0015821415;0.3967343651;0.2496752895;8.6124868393
1441927238621260000;-0.0015766636;0.0131722029;-0.4199065578;0.9074703796;0.0001947532;0.0018765344;0.0002312521;0.3969829835;0.2510391131;8.6124535441
1441927238641150000;-0.0015766636;0.0131722029;-0.4199065578;0.9074703796;-0.0003098806;0.0015867333;-0.000668702;0.3964264579;0.18965391;8.6132193327
1441927238661300000;-0.0016082254;0.0131868745;-0.4199140125;0.9074666617;-0.0010713634;0.0015599146;-0.000557649;0.3819990322;0.2038144633;8.6130084634
1441927238681240000;-0.001589194;0.0132069798;-0.419921752;0.9074628215;0.0004573772;0.0019609202;-0.0011470112;0.3133706726;0.2597401738;8.6120417357
1441927238701240000;-0.0015660245;0.0132154878;-0.419921789;0.9074627208;-0.000765329;0.0020283917;-0.0006096994;0.3476634771;0.2642797418;8.6121135831
1441927238721330000;-0.0015457028;0.0131966022;-0.4199380608;0.9074555006;0.0007620905;0.0024891282;-0.0005799481;0.3933209181;0.2582852449;8.6123624206
1441927238741310000;-0.0015377838;0.0131929376;-0.419938176;0.907455514;0.0012304921;0.0025188326;-0.0010907557;0.3968973726;0.2433464903;8.6125394106
1441927238761290000;-0.0015613103;0.0132039587;-0.4199536598;0.9074481481;-0.0019298719;0.0013821624;-0.0011747252;0.3983320579;0.1661338404;8.6135154843
1441927238781320000;-0.001569114;0.0132076374;-0.4199614894;0.9074444576;-0.0010803107;0.0024730015;-0.0004837541;0.3961348698;0.2519647513;8.6124535441
1441927238801240000;-0.0015727799;0.0131997196;-0.4199615861;0.9074445217;-0.0016552846;0.0017818655;-0.0006392072;0.3963945501;0.2647248637;8.6122905731
1441927238821290000;-0.0015525742;0.0131808197;-0.4199699426;0.9074409638;0.0006032215;0.0027324488;0.0004586175;0.3966258273;0.2423528928;8.6125540137
1441927238841240000;-0.0015489078;0.0131887384;-0.4199698461;0.9074408997;0.0010163816;0.0024678512;0.0010985623;0.3965486497;0.2236473136;8.6127929211
1441927238861260000;-0.0015525742;0.0131808197;-0.4199699426;0.9074409638;-0.0009374581;0.0020307242;-0.00063146;0.397134272;0.2160618048;8.6128840447
1441927238881290000;-0.0015639295;0.0131765931;-0.4199857532;0.9074336883;-0.000876423;0.0008989111;-0.0019241754;0.3968570679;0.2329558283;8.6815988183
1441927238901240000;-0.001551758;0.0131613454;-0.4199860794;0.9074337795;-0.0011748317;0.0013735243;6.29359868902e-05;0.396975974;0.265695443;8.6680231571
1441927238921280000;-0.0015321392;0.0131619462;-0.4199941273;0.9074300792;-0.0004281892;0.0033784619;0.0004156423;0.3970946975;0.2608191632;8.6056730151
1441927238941680000;-0.0015363918;0.0131735301;-0.4199939162;0.9074300017;-0.0009136425;0.0029197819;-0.0005138778;0.3981162965;0.204207379;8.6085580111
1441927238961220000;-0.0015241057;0.0131582944;-0.4200021567;0.9074264294;-0.000585506;0.0006242329;-0.0002380903;0.3973533921;0.2649864607;8.614123559
1441927238981510000;-0.0015276572;0.0131503901;-0.4200101672;0.9074228303;-0.0012981843;0.0014264523;-0.0014288919;0.3955136888;0.2532006148;8.6128793716
1441927239001300000;-0.0015471617;0.0131498022;-0.4200100339;0.9074228675;-0.000542135;0.0017398521;-0.0007919115;0.3956735201;0.1664917268;8.6136930585
1441927239021400000;-0.0015628838;0.0131571463;-0.4200177489;0.9074191631;0.0005137152;0.0009907395;-0.0007055115;0.3974481665;0.1979617082;8.6130756378
1441927239041510000;-0.0015469319;0.0131498292;-0.4200258929;0.9074155268;-0.0003293845;0.002701689;0.0001305842;0.397120399;0.2687530115;8.6122093797
1441927239061070000;-0.0015310942;0.0131424982;-0.4200261223;0.9074155537;0.0013596933;0.0014556483;-0.0009798669;0.396866706;0.2539277781;8.6124535441
1441927239081320000;-0.0015072234;0.013131515;-0.4200343806;0.90741193;-0.0008584934;0.0027665892;-0.0006153526;0.3975062139;0.2568293668;8.6123723507
1441927239101110000;-0.0015034419;0.0131394466;-0.420042199;0.9074082023;-0.0002700227;0.00307295;-0.0001902017;0.3966693081;0.1895722784;8.6132426977
1441927239121300000;-0.0015270833;0.0131504567;-0.4200497691;0.9074044991;-0.0006599301;0.0023987656;-0.0014845072;0.3967628047;0.2217196081;8.6128361464
1441927239141510000;-0.0015032127;0.0131394728;-0.4200580275;0.9074008751;-0.0001532336;0.0007878342;-0.0008806111;0.3968810171;0.2615247868;8.6123191953
1441927239161210000;-0.0015068798;0.0131315545;-0.4200581234;0.9074009393;-0.0003761888;0.0028984142;-7.67980214621e-05;0.3967100874;0.2603555318;8.6123291254
1441927239181060000;-0.0015030976;0.013139486;-0.4200659719;0.9073971974;-0.0013158269;0.0026053088;-0.0008158884;0.396317555;0.2410126168;8.63139323
1441927239201180000;-0.0015066503;0.0131315808;-0.420073982;0.9073935978;-0.0010779936;0.0016196874;0.0004635409;0.3969970025;0.1838972434;8.6218182445
1441927239221070000;-0.0015188203;0.0131468309;-0.4200736567;0.9073935072;-0.0009563853;0.0023078049;-0.0001086254;0.3967401333;0.2063918624;8.643437314
1441927239241480000;-0.0015302914;0.0131425918;-0.4200815522;0.9073898941;0.0007374643;0.0013960297;-0.00115961;0.3972701177;0.2691985168;8.614802897
1441927239261160000;-0.001518007;0.0131273559;-0.4200897916;0.9073863208;-0.0013649479;0.0010250444;-0.0004195906;0.3963314645;0.251520177;8.6119365931
1441927239282280000;-0.0015021698;0.0131200239;-0.4200900206;0.9073863472;-0.0004354675;0.0025858194;0.0001843449;0.3963276312;0.2559674166;8.6107642531
1441927239301380000;-0.0014863331;0.013112692;-0.4200902496;0.9073863732;-0.0011171474;0.0030590506;-0.0004690058;0.3981892027;0.2582529902;8.6129891872
1441927239321450000;-0.0014983884;0.0131279542;-0.4200978389;0.9073826191;-0.0002815721;0.0025680587;-0.0004123077;0.3970095977;0.1909934375;8.6821537376
1441927239341350000;-0.0015221438;0.0131389524;-0.4200974951;0.9073825795;-0.0010901813;0.0021928689;-0.0005674159;0.3965349957;0.1886916362;8.6689040184
1441927239361340000;-0.0015422318;0.0131578689;-0.4200970547;0.9073824754;-0.000104056;0.0026637553;7.10850582052e-05;0.3964194484;0.1782764226;8.6187842965
1441927239381090000;-0.0015658718;0.0131688805;-0.4201046241;0.9073787706;7.41681986699e-05;0.0024560439;0.000585059;0.3963950977;0.180022027;8.7097162843
1441927239401340000;-0.0015932947;0.0131719607;-0.4201043759;0.9073787931;-8.09652248518e-05;0.0004790309;-0.0001032851;0.3959207878;0.1820428457;8.6877239585
1441927239421140000;-0.0015925963;0.0131524732;-0.420112598;0.9073752703;-0.0007519121;0.0008643149;-0.0009784666;0.396352201;0.2637155861;8.6381451368
1441927239441730000;-0.0015767593;0.0131451407;-0.4201128274;0.9073752979;-0.0003389267;0.0018332484;-0.0004734827;0.3966402844;0.2573077474;8.6990600824
1441927239461270000;-0.0015725087;0.0131335564;-0.4201130384;0.9073753754;-0.0008828667;0.0012382018;-8.50084784446e-05;0.397953362;0.2599175654;8.6863793016
1441927239481330000;-0.0015603393;0.0131183069;-0.4201133637;0.9073754664;0.0011310384;0.0018682485;-0.0004782319;0.3980215952;0.2598828647;8.690006721
1441927239501090000;-0.0015718103;0.0131140687;-0.4201212896;0.9073718381;-0.0003232798;0.0012480323;-0.0006946116;0.395954448;0.1821179789;8.6066344857
1441927239521080000;-0.0015759464;0.0131256667;-0.4201289929;0.9073680965;-0.0014357562;0.0032584439;-0.0002492801;0.3971983798;0.23843509;8.6141089559
1441927239541240000;-0.0015836356;0.0131293606;-0.4201447061;0.907360754;-0.0005035903;0.0015631644;-0.0013823239;0.3973505445;0.2178414892;8.6482031941
1441927239561290000;-0.0015635491;0.0131104434;-0.4201451458;0.9073608588;0.0008690858;0.0016510445;-0.0001873374;0.397522752;0.267924612;8.6518685818
1441927239581420000;-0.0015634347;0.013110457;-0.4201530597;0.9073571943;-0.002393504;0.002107515;-0.0012770149;0.3963373058;0.2504205424;8.6109558463
1441927239601530000;-0.0015633204;0.0131104706;-0.4201609735;0.9073535298;-0.0016709074;0.0023771274;-0.0004867939;0.3970863737;0.2390724622;8.6362642527
1441927239621050000;-0.001559538;0.0131184022;-0.4201687912;0.9073498015;-0.001754299;0.001900387;-0.0009349347;0.397634393;0.2703905161;8.612601912
1441927239641730000;-0.0015552875;0.0131068174;-0.4201690017;0.9073498787;-0.0006798904;0.0017144304;-0.0004996345;0.3973470032;0.2509982243;8.6198129416
1441927239661200000;-0.0015320009;0.0131153325;-0.4201769825;0.9073460996;-0.0008115977;0.0026682276;-0.0009857776;0.3972406559;0.2540085152;8.6122426748
1441927239681330000;-0.0015239686;0.0131116791;-0.4201850107;0.9073424481;-0.0014225056;0.0030761115;-0.0002103383;0.3975853994;0.2579249855;8.6120370626
1441927239701280000;-0.0015197179;0.0131000952;-0.4201852209;0.9073425252;0.0002988008;-0.0002416503;-0.0003200423;0.3970216818;0.2586289845;8.6980314374
1441927239721250000;-0.0015075502;0.0130848438;-0.4201855451;0.9073426155;-0.0008878339;0.002353108;0.0004631035;0.3959601067;0.243589158;8.6836613655
1441927239741350000;-0.0015074361;0.013084857;-0.4201934588;0.9073389506;0.0007015616;0.0016462905;-0.0005115673;0.3966406129;0.229583909;8.5992657423
1441927239761300000;-0.0015109903;0.0130769523;-0.420201468;0.9073353495;-0.0008543142;0.0008617807;-0.0003817619;0.3976705723;0.2499118421;8.6163578391
1441927239781290000;-0.0015108762;0.0130769655;-0.4202093817;0.9073316845;0.0003177114;0.0025824192;-0.001083198;0.3958108991;0.1853455827;8.6135446906
1441927239801280000;-0.0015345162;0.01308798;-0.4202169528;0.9073279796;-0.0014286967;0.0024892161;-0.0018094117;0.3969347931;0.1886803005;8.6987487435
1441927239821130000;-0.0015580408;0.0130990083;-0.4202324673;0.9073205949;-0.0006729125;0.0028420444;-0.0018607136;0.3970193453;0.1777264684;8.6841158152
1441927239841310000;-0.0015816802;0.0131100239;-0.4202400377;0.9073168885;-0.000893765;0.0031533083;-0.0005731019;0.3964803435;0.2129151389;8.5993708849
1441927239861260000;-0.0015657304;0.0131027031;-0.42024818;0.9073132507;-0.0005620453;0.0020493022;-0.0004829804;0.3968392156;0.2625469882;8.6162626267
1441927239881250000;-0.0015578123;0.0130990355;-0.4202482943;0.9073132643;-0.0004429343;0.001564439;-0.0005134432;0.3976198994;0.2618974224;8.6125586867
1441927239901190000;-0.0015497803;0.0130953817;-0.420256322;0.9073096125;-0.0009724044;0.0020121593;-0.0007097165;0.396994447;0.2574310891;8.6121760845
1441927239921180000;-0.0015337167;0.0130880737;-0.4202723773;0.9073023084;-0.0004067483;0.0019867165;-0.0002643815;0.3966254622;0.2423394214;8.6125394106
1441927239941360000;-0.0015336025;0.0130880871;-0.4202802907;0.9072986428;-0.0001694248;0.0023329434;-0.0014352468;0.3968393616;0.2221607689;8.6130370855
1441927239961320000;-0.0015377364;0.0130996856;-0.4202880241;0.9072948861;-0.0013130189;0.0036858022;-0.0015098681;0.3967722237;0.2140724741;8.6129272699
1441927239981280000;-0.001549788;0.0131149519;-0.4202956126;0.9072911298;-0.0019417986;0.0033974237;-0.0008070769;0.3974220999;0.2756110467;8.6121135831
1441927240001310000;-0.0015418705;0.0131112842;-0.4202957271;0.9072911433;0.0014711927;0.0019775899;-6.30022245694e-05;0.3968867488;0.259465288;8.6123484016
1441927240061300000;-0.0015337243;0.0131076432;-0.4203116679;0.907283825;-0.0012344103;0.0022995155;-0.0003092256;0.395912683;0.1898684118;8.6132094026
1441927240081270000;-0.0015415274;0.0131113245;-0.4203194667;0.9072801457;-0.00106093;0.0015430539;-0.0021437159;0.3968698822;0.2705184761;8.6122093797
1441927240101440000;-0.0015334957;0.01310767;-0.4203274943;0.9072764931;-0.0015912529;0.0005206661;-0.0014594617;0.3969545439;0.2567426059;8.6123910427
1441927240121150000;-0.001505381;0.0130850936;-0.4203359603;0.9072729438;-0.0012895303;0.0024573346;-0.0003573091;0.3974088475;0.2443919107;8.6125300646
1441927240141330000;-0.001563665;0.0130833787;-0.4203514189;0.9072657079;-0.0002705131;0.0014311112;-0.0009526326;0.3955079935;0.214350025;8.5976196766
1441927240161280000;-0.0015793859;0.0130907292;-0.4203591035;0.9072620142;-0.0006943706;0.0004797708;-0.0001774221;0.39523298;0.1831452001;8.5432171464
1441927240181260000;-0.0016182803;0.0130895832;-0.420366752;0.9072584184;-0.0003254842;0.0010777288;-0.0021180487;0.3962445758;0.1755693477;8.6223392844
1441927240201470000;-0.0016381335;0.013108534;-0.4203821385;0.9072509799;-0.001169088;0.0041405536;-0.0014694604;0.3962930948;0.1798235338;8.6110703349
1441927240221370000;-0.0016661331;0.0131311242;-0.4203815839;0.9072508592;-7.23279046317e-05;0.0015657437;0.0003753668;0.3981723361;0.1803572968;8.6120849609
1441927240241410000;-0.0016897705;0.0131421446;-0.4203891529;0.9072471487;-0.0016407933;0.0033547804;-0.0013468075;0.3959990606;0.1791190237;8.6135207415
1441927240261360000;-0.0017011276;0.0131379268;-0.4204049912;0.9072398495;-0.0008414178;-0.000138171;-0.0005040951;0.396121873;0.2643300679;8.6121089101
1441927240281200000;-0.0016929814;0.0131342877;-0.4204209314;0.9072325307;-0.0016192616;0.0013941894;-0.0016429853;0.3962557107;0.2560047276;8.6124915123
1441927240301230000;-0.0016771469;0.0131269498;-0.4204211605;0.9072325601;-0.0001743006;0.0026666193;-0.0003440334;0.3970324516;0.2563148435;8.6123863697
1441927240320990000;-0.0016807028;0.0131190476;-0.4204291701;0.9072289561;-0.001635315;0.0003117779;-0.0007673579;0.3973317429;0.2242117979;8.6128075242
1441927240340940000;-0.001715927;0.0131258215;-0.4204367218;0.9072252925;-0.0003420971;0.0003494169;0.000140815;0.39622676;0.1893277124;8.6986628771
1441927240361280000;-0.0017389874;0.013117342;-0.4204445997;0.9072217204;-0.0002851551;0.002099148;-0.0013636222;0.4141356833;0.1788778163;8.6566823602
1441927240381240000;-0.0017706551;0.0131320181;-0.4204441415;0.9072216591;-0.0003355509;0.0026891971;0.0002616022;0.38990926;0.1784467135;8.606677711
1441927240401120000;-0.0018016319;0.0131272086;-0.4204519357;0.9072180556;-0.000145028;0.0001260876;-0.0002030154;0.4055740826;0.1807453569;8.6089079022
1441927240421260000;-0.0018094342;0.0131308934;-0.4204597337;0.9072143726;0.0009418139;0.0016906271;-0.0013566858;0.3931839772;0.1796426557;8.6152001023
1441927240441720000;-0.0018209077;0.013126662;-0.4204676294;0.9072107515;0.0011668371;0.0016031708;-0.0011634188;0.3946875162;0.1789108377;8.6137982011
1441927240461290000;-0.0018250392;0.0131382638;-0.4204753296;0.9072070064;-0.0019770165;0.0023979032;-0.000396485;0.3978349306;0.2529254004;8.612611258
1441927240481370000;-0.0018127615;0.0131230241;-0.420483569;0.9072034327;-0.0001489435;0.0013163257;-0.0009555123;0.3976172708;0.2491611131;8.6124582171
1441927240501230000;-0.0018084008;0.0131114548;-0.4204916935;0.907199843;-0.0006677996;0.0015864773;-0.0011283387;0.3961046778;0.2454642557;8.612606585
1441927240521220000;-0.0018202203;0.0131267573;-0.4205151344;0.9071887327;0.0005517395;0.0025461185;-0.001956569;0.3958394483;0.1743993808;8.6134296179
1441927240541670000;-0.001828137;0.0131304269;-0.4205150198;0.9071887168;0.0003003916;0.0013341247;-0.0008298922;0.3967211127;0.1795631051;8.6133431673
1441927240561310000;-0.0018553284;0.0131335527;-0.4205305986;0.9071813949;-0.0009033619;0.0015214951;-5.17335739388e-05;0.3960692652;0.1816490356;8.6133244753
1441927240581050000;-0.0018709328;0.0131409251;-0.4205461938;0.9071740266;-0.0002936425;0.0013238834;-0.0011512395;0.3966333114;0.2471985973;8.6125061154
1441927240601260000;-0.0018471828;0.0131299151;-0.4205465377;0.9071740753;-0.00014414;0.0018071262;9.28894131323e-05;0.3969975501;0.2505575381;8.6124821663
1441927240621470000;-0.0018666877;0.0131293388;-0.4205464065;0.9071741045;-0.0013966767;0.0017163585;-0.000930432;0.3957787722;0.1745698176;8.6134202719
1441927240641250000;-0.0018824061;0.013136695;-0.4205540895;0.9071704038;0.000277441;0.0029444793;-0.0014341538;0.3960689731;0.1860481944;8.613271904
1441927240661250000;-0.0019144162;0.0131709103;-0.4205691735;0.9071628478;5.29170502738e-05;0.0024696491;-0.0016383273;0.3629335403;0.1808927391;8.6132240057
1441927240681050000;-0.0019063849;0.0131672569;-0.4205772006;0.9071591963;-0.0008184164;0.0016033417;-0.0003743777;0.4103797928;0.2636974417;8.6123484016
1441927240701180000;-0.0018866504;0.0131678654;-0.4205931561;0.9071518312;-0.0005719766;0.0018553678;-0.0011586142;0.3653343327;0.2548621964;8.6122812271
1441927240721040000;-0.001867719;0.0131879427;-0.420592976;0.9071516622;-0.0018371874;0.001126152;0.0001969002;0.3437535964;0.2565589167;8.6121760845
1441927240741380000;-0.0018634745;0.0131763562;-0.4205931894;0.9071517404;-0.0004505421;0.0016325055;-0.0002592552;0.4223166898;0.2592031799;8.6124535441
1441927240761050000;-0.0018632447;0.0131763887;-0.4206090134;0.9071444036;0.000965669;0.0010633552;-0.0010374873;0.4043569475;0.2011478391;8.613094914
1441927240781200000;-0.0018788468;0.0131837625;-0.4206246375;0.9071370198;-0.0020457912;0.0018170047;-0.0017971495;0.393190001;0.1807082467;8.6133198023
1441927240801040000;-0.0019177407;0.0131826306;-0.4206322863;0.9071334082;-0.0006760297;0.000963558;-0.0003013848;0.3965901956;0.1870152142;8.613285923
1441927240821230000;-0.0019297862;0.013197905;-0.4206398692;0.9071296443;-0.001117466;0.0030367017;-0.0011903131;0.3957942151;0.1808430336;8.6133530974
1441927240841370000;-0.0019534193;0.0132089343;-0.4206474354;0.9071259247;0.0002922895;0.0016196863;-0.000127851;0.3975240663;0.2122234065;8.6129366159
1441927240861250000;-0.0019296711;0.0131979219;-0.4206477811;0.9071259755;0.0011362767;0.0019162874;-0.0003699376;0.3970634833;0.2284239635;8.6127450228
1441927240881040000;-0.0019569765;0.0132010354;-0.4206554462;0.9071223173;-0.0009814394;0.0018921066;-0.0007691816;0.3954334445;0.1788573902;8.6133530974
1441927240901310000;-0.0019806098;0.0132120655;-0.4206630123;0.9071185968;-0.0002992562;0.0009617359;-0.0005899928;0.3959183782;0.173827887;8.6134389639
1441927240921060000;-0.0019962113;0.0132194425;-0.4206786353;0.90711121;-0.0008893744;0.0029965178;-0.0019992315;0.3968742266;0.2160016216;8.6128933907
1441927240941480000;-0.0019686751;0.013216362;-0.4206867937;0.9071075315;0.0004752836;0.0007376401;-0.0004904652;0.3630505115;0.2288250934;8.612615931
1441927240961050000;-0.0019959807;0.0132194773;-0.4206944586;0.9071038717;6.41540409192e-05;0.0025037722;-9.24742776212e-05;0.4082831107;0.1787834983;8.6134103417
1441927240981210000;-0.0020081397;0.0132347354;-0.4206941283;0.9071037755;-0.0008028057;0.0019712411;-0.000485709;0.3998095669;0.1886528466;8.6132479549
1441927241001280000;-0.0020275288;0.0132341798;-0.4207019085;0.9071001322;-0.0017817802;0.0013894514;-0.0011777775;0.3987452537;0.1959520608;8.5943801165
1441927241021320000;-0.0020705503;0.0132446568;-0.4207172537;0.907092765;-0.0010616567;0.0020467415;-0.0009226622;0.3965219624;0.1786570899;8.626483655
1441927241041340000;-0.0021022139;0.0132593426;-0.4207167911;0.9070926922;-0.0014945477;0.00135817;-0.0009944849;0.3954436302;0.1807163332;8.60175879
1441927241061280000;-0.002110014;0.0132630327;-0.4207246171;0.9070889903;0.0004999727;0.0021016793;0.0003168625;0.3966122828;0.1792539202;8.6051175118
1441927241081050000;-0.0021338775;0.0132740284;-0.4207163281;0.9070926182;-0.0004084666;0.001284847;0.0003126296;0.3966745287;0.1933624133;8.5996483445
1441927241101280000;-0.0021490226;0.0132618883;-0.4207243549;0.9070890371;-0.0002957421;0.0011994275;-0.0007129088;0.3957826056;0.185852275;8.6054574728
1441927241121280000;-0.0021611816;0.0132771471;-0.4207240228;0.907088939;0.000649666;0.0019851746;0.0004325008;0.3955385506;0.2016790647;8.6176785469
1441927241141300000;-0.0021727703;0.0132729029;-0.4207240076;0.9070889805;-0.001475715;0.0013787797;1.7953454742e-05;0.3964705594;0.1923774134;8.6157649517
1441927241201360000;-0.0021726546;0.0132729219;-0.4207319191;0.907085311;-0.0012229064;0.0012676656;-0.0014631958;0.3967126429;0.1827698082;8.6096351385
1441927241221260000;-0.002199959;0.0132760413;-0.4207395838;0.9070816444;0.0003614763;0.0021325526;-0.0002686381;0.3963580787;0.1773771249;8.6146592021
1441927241241260000;-0.002177003;0.0133040867;-0.4207630304;0.907070413;-0.0003417474;0.0019499817;-0.0007673609;0.4121138059;0.2077531304;8.6096830368
1441927241261260000;-0.002180444;0.0132962093;-0.4207789841;0.9070631196;-0.0012155941;0.0020809426;-0.0011372981;0.4256637655;0.1782369759;8.6145254374
1441927241281190000;-0.0022194532;0.0132950675;-0.420778722;0.9070631634;-0.0003069824;0.0027954086;0.0003623215;0.3950732946;0.1879441563;8.6135686398
1441927241301110000;-0.0022352847;0.0133024116;-0.4207784899;0.9070631245;-0.0004864477;0.0013682889;-0.0002835334;0.4026292868;0.1803732689;8.6132000566
1441927241321280000;-0.0022590313;0.0133134275;-0.4207781415;0.9070630657;-0.0006189022;0.0017609284;0.0003221516;0.3957504056;0.1789394233;8.6133910656
1441927241341330000;-0.0022711893;0.0133286869;-0.4207778074;0.9070629662;-9.90428935288e-05;0.0022459626;-0.0007723747;0.3959465258;0.1796676271;8.6133244753
1441927241361310000;-0.002271073;0.0133287067;-0.4207857187;0.9070592962;-0.0007206659;0.0013982672;-0.0011905105;0.3968002982;0.2131438058;8.6129079938
1441927241381090000;-0.0022789885;0.0133323787;-0.4207856024;0.9070592763;0.0007195305;0.0007847981;-0.0011889732;0.3963146344;0.1898677729;8.6132240057
1441927241401290000;-0.0023026191;0.013343415;-0.4207931644;0.9070555463;-0.0013863528;0.0031183655;-0.0003897788;0.3956562154;0.1718112119;8.613467586
1441927241421290000;-0.0023221236;0.0133428439;-0.4207930335;0.9070555657;-0.0011824599;0.0009174855;-0.0002304424;0.3964427769;0.1793609429;8.6133624435
1441927241441200000;-0.0023537859;0.0133575324;-0.4207925675;0.9070554841;-0.0003472195;0.0014301507;-0.0002758902;0.3957317866;0.1792777233;8.6133624435
1441927241461260000;-0.0023653746;0.0133532901;-0.4207925532;0.907055523;7.75192156876e-05;0.0007661232;0.000326812;0.3959274687;0.1806862872;8.6133577704
1441927241481210000;-0.0023652582;0.0133533107;-0.4208004644;0.9070518529;5.1578272995e-05;0.0020921672;-0.0022099093;0.396452342;0.2292204734;8.6127117276
1441927241501310000;-0.0023888883;0.0133643482;-0.4208080258;0.9070481204;-0.0006297948;0.0021846137;7.41314144079e-05;0.3969205916;0.1728476513;8.6134389639
1441927241521230000;-0.0023925621;0.0133564329;-0.4208081283;0.9070481798;-0.001289055;0.0010705688;0.0003107232;0.3970127374;0.2246249389;8.6128075242
1441927241541080000;-0.0023880877;0.0133448872;-0.4208241695;0.9070409193;-0.0003951202;0.0009062006;-0.0016593302;0.3956938185;0.2182519287;8.6128600955
1441927241561340000;-0.0023917612;0.0133369729;-0.4208242719;0.9070409786;0.0001791393;0.0009718481;-0.0016756556;0.3960228637;0.2423597928;8.6125633597
1441927241581040000;-0.002379255;0.0133217752;-0.4208483701;0.907030054;0.0001293893;0.0008359603;-0.0009652991;0.3972999446;0.2506490633;8.6124488711
1441927241601250000;-0.0023754646;0.013329711;-0.4208561789;0.9070263241;-0.002237389;0.0037144902;-0.0012772526;0.3966845684;0.1983852357;8.613113606
1441927241621080000;-0.0023790226;0.0133218167;-0.420864192;0.9070227127;0.0005040792;0.0012111785;-0.0002967385;0.3976474263;0.2099953875;8.6317711592
1441927241641300000;-0.0023550449;0.0133108397;-0.4208803624;0.9070154331;0.0007176695;0.0008210624;-0.0015503042;0.3968412235;0.2652243093;8.6054574728
1441927241661110000;-0.0023349731;0.013291907;-0.4208808125;0.9070155538;0.0006949981;0.0015603942;-0.0003166883;0.3961285904;0.2530885175;8.6207843423
1441927241681300000;-0.0023068704;0.0132693206;-0.4208893188;0.9070120092;0.0011821461;0.0015925066;-0.001553549;0.3966967985;0.2550456665;8.6136831284
1441927241701150000;-0.0023104292;0.0132614259;-0.420897331;0.9070083976;-0.0005615385;-0.0003263028;-0.0003977138;0.3964929387;0.1746205635;8.6127689719
1441927241721130000;-0.0022950493;0.0132736027;-0.4209051547;0.9070046278;-0.0001678264;0.0010649711;-0.0010135807;0.3124336623;0.2686746474;8.61175493
1441927241741380000;-0.0022680799;0.0132900189;-0.4209129932;0.9070008177;-0.0006871355;0.0029282267;-8.31247276124e-05;0.3887958437;0.2412058711;8.6124967694
1441927241761370000;-0.0022795538;0.0132857982;-0.4209208893;0.9069971864;-0.0009398807;0.0014398555;-0.0010611324;0.4012778029;0.1740273658;8.61328125
1441927241781210000;-0.0022952677;0.0132931646;-0.4209285681;0.9069934752;-0.0002631887;0.0021129898;-0.0006696452;0.4004193574;0.1823478688;8.6134009957
1441927241801230000;-0.0023262462;0.0132883763;-0.420936334;0.9069898623;0.00025967;0.0008197641;-0.001399511;0.3965835877;0.179894359;8.6133863926
1441927241821120000;-0.0023303702;0.0132999838;-0.4209440571;0.9069860973;0.0005549534;0.0005523679;-0.0001692025;0.3613572776;0.1946567625;8.6130178094
1441927241841310000;-0.0023382851;0.0133036572;-0.420943941;0.9069860769;-0.0012687782;0.0015291022;-0.0012434948;0.403211806;0.21032467;8.6130037904
1441927241861110000;-0.0023137431;0.0132731753;-0.4209604293;0.9069789338;-0.0006499899;0.0007693581;-0.0022104877;0.4007390566;0.2613836475;8.6123484016
1441927241881130000;-0.0023093878;0.0132616073;-0.4209685571;0.9069753417;-0.0010707397;0.0013937405;-0.000459699;0.3940984987;0.2630162053;8.6123145223
1441927241901090000;-0.0023130625;0.0132536936;-0.4209686585;0.9069754009;-0.0008144696;0.0015515242;-0.0004062189;0.3974383459;0.1878787708;8.613276577
1441927241921170000;-0.0023446063;0.0132684087;-0.4209761061;0.906971648;-0.0017187511;0.0018958487;-0.0004166522;0.3968304537;0.1891972151;8.6821537376
1441927241941410000;-0.0023561963;0.0132641678;-0.420976092;0.9069716865;0.000407619;0.0006136717;-0.0006049224;0.3965272926;0.1754021782;8.6286560178
1441927241961310000;-0.0023719104;0.013271536;-0.4209837709;0.9069679735;-0.0009629343;0.0016538906;-0.0008731156;0.3957853071;0.1958506968;8.6256652951
1441927241981040000;-0.0023558487;0.0132642295;-0.4209998535;0.9069606571;-0.0008406091;0.002856925;-0.0008009942;0.3973646;0.2631923921;8.6147117734
1441927242001180000;-0.0023479341;0.0132605556;-0.4209999692;0.9069606776;-0.0025453755;2.87769353408e-05;0.0001913353;0.397809083;0.2286114678;8.6118028283
1441927242021400000;-0.0023753535;0.0132636639;-0.4209997237;0.9069606747;0.0007851027;0.0019127312;-0.0003177439;0.3953457527;0.1737951942;8.6133005261
1441927242041160000;-0.0023752378;0.0132636846;-0.4210076341;0.9069570028;-0.0002831205;0.0022646929;-0.0006789947;0.395577541;0.2083215576;8.6131521583
1441927242061250000;-0.0023592925;0.0132563571;-0.4210157759;0.9069533721;0.0003917894;0.0017855433;-0.0013971916;0.3979359478;0.2528852053;8.6124868393
1441927242081230000;-0.0023750064;0.0132637261;-0.4210234547;0.9069496587;-0.0016756828;0.001781838;-0.0001966548;0.3966080114;0.1648386698;8.6135154843
1441927242101060000;-0.0023986343;0.0132747692;-0.4210310176;0.9069459241;-0.0011022669;0.0012268959;0.0002183751;0.395898591;0.1746767674;8.6134103417
1441927242121110000;-0.0024180237;0.0132742245;-0.4210387982;0.9069422686;4.19773855348e-05;0.000686897;-0.0001642646;0.3960431986;0.1818858255;8.6133291483
1441927242141180000;-0.0024337363;0.0132815942;-0.4210465069;0.9069385399;-0.0007892156;0.0012948117;-0.0012731832;0.3957927547;0.2131305352;8.6129366159
1441927242161220000;-0.0024415349;0.0132852898;-0.4210543012;0.9069348463;0.0014449631;0.001701008;-0.0014146999;0.3627673201;0.1858113315;8.6131521583
1441927242181080000;-0.0024298287;0.0132895509;-0.421062225;0.9069311366;0.0016389368;0.001413451;-0.0005880455;0.3277457461;0.1947535083;8.6129033208
1441927242201410000;-0.002441419;0.0132853111;-0.4210622113;0.9069311739;-0.0002385362;0.001356124;-0.0009399758;0.4050643601;0.2085146111;8.6129938602
1441927242221240000;-0.0024174444;0.01327433;-0.4210783792;0.9069238925;-0.0010485247;0.0007804195;-0.0011706175;0.4016894653;0.2650504407;8.6123098493
1441927242241660000;-0.0024447476;0.0132774608;-0.4210860439;0.9069202147;-0.0027183356;0.0022097379;-0.0009569316;0.3953152686;0.1787060287;8.6133863926
1441927242261090000;-0.0024605766;0.0132848103;-0.4210858121;0.9069201719;0.0003424542;0.0018314109;-0.0006564046;0.3965879686;0.1804749981;8.6133484244
1441927242281180000;-0.0024724965;0.0133001169;-0.4211013277;0.906912711;-0.0011962355;0.0022618622;-0.001006858;0.3970478214;0.1774559088;8.6133723736
1441927242301060000;-0.0024963562;0.0133111195;-0.4210930392;0.9069163328;-0.0002300192;0.0025369506;0.0001719466;0.3959813543;0.1801153958;8.6133338213
1441927242321240000;-0.0024924471;0.0133190772;-0.4211087865;0.9069089148;-0.0008346263;0.0027572523;-0.0008368884;0.3975061044;0.2631425224;8.6123098493
1441927242341280000;-0.0024687041;0.0133080525;-0.4211091351;0.9069089798;0.000391857;0.0006425288;0.0005466612;0.3976783484;0.2509611506;8.6124675632
1441927242361150000;-0.0024289009;0.0132897205;-0.4211255351;0.9069017408;0.00013136;0.0018210643;-0.0009196219;0.3961493634;0.2551673654;8.6123910427
1441927242401230000;-0.0024444977;0.0132971133;-0.4211411228;0.9068943521;-0.0010826118;0.0023110368;-0.0010080696;0.3959725559;0.1809100803;8.6133484244
1441927242421080000;-0.0024522957;0.0133008098;-0.4211489165;0.9068906576;0.0006854607;0.0015000757;-0.0016073082;0.3960715652;0.1910204899;8.6132286787
1441927242441380000;-0.0024558561;0.0132929174;-0.421156959;0.9068870288;0.0012964696;0.0008473866;-0.0012383889;0.396310436;0.1883088332;8.6132573009
1441927242461430000;-0.0024558561;0.0132929174;-0.421156959;0.9068870288;0.0006927854;0.0019005988;-0.001050747;0.3962445028;0.1778501753;8.6133863926
1441927242481450000;-0.0024834873;0.0133155974;-0.421180121;0.9068758641;-0.0006172344;0.0006721276;-0.0015083719;0.3969679788;0.1810147483;8.6133384943
1441927242501130000;-0.0024949621;0.0133113809;-0.4211880173;0.9068722272;4.2836882409e-05;0.0019677719;-0.0008630804;0.3962190203;0.2481887266;8.6125014424
1441927242521310000;-0.0024748972;0.0132924404;-0.4211884682;0.9068723505;-0.00126907;0.0020212689;-0.0010092802;0.3969124503;0.1909678273;8.6132193327
1441927242541140000;-0.0024783421;0.0132845709;-0.4212043899;0.9068650616;0.0001800905;-0.0001678956;-0.0008404576;0.3967497714;0.2558982342;8.6123863697
1441927242561240000;-0.0024464545;0.0132699108;-0.4212207026;0.906857786;0.0004969423;0.002479779;-0.0011281362;0.3962806821;0.2417426459;8.6125493407
1441927242581050000;-0.0024579304;0.0132656947;-0.4212285986;0.906854149;-0.0012014076;0.0008683889;-0.0005378993;0.396740973;0.173270832;8.6134389639
1441927242601290000;-0.0024778782;0.0132846574;-0.4212360581;0.9068503522;-0.0004125729;0.0032497743;-0.0007681707;0.3967740856;0.1831939928;8.6133145452
1441927242621250000;-0.0024935901;0.0132920313;-0.4212437356;0.9068466349;0.0005014361;0.0010893741;-0.0004481641;0.3967392936;0.1810829632;8.6133530974
1441927242641310000;-0.0025049495;0.0132878375;-0.421259541;0.906839323;-0.0020064444;0.0009987415;-0.0019336003;0.3964966625;0.2471722022;8.6125014424
1441927242661070000;-0.0025048332;0.0132878594;-0.4212674805;0.9068356348;-0.0002001254;0.0017632186;-0.0003772145;0.3950479582;0.1953941844;8.6131615043
1441927242681410000;-0.0025205443;0.0132952338;-0.4212751578;0.9068319166;-0.0002089022;0.0004329388;-0.0011049258;0.3803620204;0.1924163491;8.6131328821
1441927242741490000;-0.0024849801;0.0132884852;-0.4212913375;0.9068245971;-0.0005529817;0.0020933082;-0.0009586124;0.398334869;0.2407686349;8.6125826359
1441927242761510000;-0.0025008075;0.0132958382;-0.4212911055;0.9068245536;-0.0015214153;0.0021624844;-0.0002341146;0.3956071489;0.1684456632;8.6134868622
1441927242781270000;-0.0025165184;0.013303213;-0.4212987826;0.9068208354;-0.0004489097;0.0015981155;-0.0007009138;0.3954352699;0.1836006537;8.6133098722
1441927242801220000;-0.0025401429;0.0133142648;-0.4213063433;0.9068170946;-0.00076787;0.0020363895;-0.0007404298;0.3966040686;0.1950646646;8.6131714344
1441927242821370000;-0.0025474992;0.0132984384;-0.4213065494;0.9068172105;-0.0012745929;-0.0003154203;-0.0002665538;0.3963807501;0.234878587;8.6126591563
1441927242841460000;-0.0025119348;0.0132916891;-0.421322759;0.9068098775;0.0008807067;0.0030835998;-0.0012213648;0.3966290399;0.253622463;8.612424922
1441927242861300000;-0.0025039056;0.0132880343;-0.421330784;0.9068062246;-0.0013627939;0.0013891804;-0.0006022784;0.3976974785;0.2504638225;8.6124535441
1441927242881230000;-0.0025117029;0.0132917329;-0.4213385771;0.9068025279;-0.0020592587;0.0013463642;-0.0015793796;0.3966836922;0.1768112533;8.6134009957
1441927242901320000;-0.0025469188;0.0132985496;-0.4213461249;0.9067988227;-0.0007193024;0.0013054046;-0.0004961532;0.3958040722;0.1804980345;8.6133723736
1441927242921350000;-0.0025778996;0.0132937778;-0.421353892;0.9067951961;-0.0010840447;0.0003985921;-0.0009242175;0.3954112843;0.1816320047;8.6133244753
1441927242941470000;-0.0025821342;0.0133053678;-0.4213536727;0.9067951159;-0.0001196787;0.0025579891;-0.0003291501;0.3957434326;0.1942164596;8.6131615043
1441927242961510000;-0.0025660754;0.0132980584;-0.4213697227;0.9067878107;-0.0001965603;0.0034913462;-0.0011718431;0.3984937511;0.2679822214;8.6122380018
1441927242981180000;-0.0025464544;0.0132986385;-0.4213777907;0.9067841084;-0.0008302624;0.0013216995;-0.0004656869;0.3983810514;0.2537586555;8.6124149919
1441927243001270000;-0.0025385414;0.0132949613;-0.4213779068;0.9067841306;-0.0018991561;0.0013539577;-7.3174479063e-05;0.3980457999;0.2587377962;8.6123670936
1441927243021280000;-0.002502978;0.013288209;-0.4213940855;0.9067768101;-0.0012193954;0.0022154083;0.0001126947;0.3960240319;0.2576426338;8.6123723507
1441927243041230000;-0.0024985122;0.0132766624;-0.4214101216;0.9067695391;0.0008275362;0.0010799328;-0.0024917154;0.3967561238;0.1888801809;8.6132333517
1441927243061390000;-0.0025220193;0.0132877388;-0.4214255912;0.9067621223;-0.001691316;0.0020540719;-0.0010194499;0.3958415292;0.2018770833;8.6130657077
1441927243081240000;-0.0025182238;0.0132956736;-0.4214334272;0.9067583747;-0.0005515825;0.0015716152;-0.0002912492;0.3966623351;0.2193757314;8.6128647685
1441927243101090000;-0.0025139901;0.0132840832;-0.421433646;0.9067584546;-7.32154570236e-05;0.0016695605;-0.0002417681;0.3970296405;0.2109040312;8.6129652381
1441927243121090000;-0.002486456;0.0132809844;-0.4214417997;0.9067547863;-0.0008461108;0.0010783915;-0.0010005662;0.3971860766;0.2632330801;8.6123005033
1441927243141590000;-0.0024740782;0.0132657594;-0.421457951;0.9067475361;-0.0011385778;0.0006414647;-0.0013434151;0.3965807766;0.2195403088;8.6128600955
1441927243161090000;-0.0025013803;0.0132689034;-0.4214656146;0.906743853;-0.0009856143;0.0009055696;-0.0016076267;0.3954000764;0.1689981364;8.6475957036
1441927243181240000;-0.0025285665;0.0132720687;-0.4214811868;0.906736493;-0.0017893452;0.0015254994;-0.0008295835;0.4112039208;0.1936554253;8.6154057145
1441927243201270000;-0.00255844;0.013228297;-0.4214896261;0.9067331259;-0.0001492067;0.0009693485;-0.0003603445;0.4861630328;0.1908546347;8.6223346114
1441927243221220000;-0.0025730434;0.0131966704;-0.4214979449;0.9067296785;0.0008532977;0.0014300807;-0.0016566655;0.4386042267;0.1938176297;8.6133770466
1441927243241280000;-0.002588754;0.0132040496;-0.4215056228;0.9067259571;-0.0012250283;0.0018594856;-0.0001217262;0.3782363512;0.1743437245;8.6116018891
1441927243261300000;-0.0026124922;0.0132150847;-0.421505277;0.9067258891;-4.53207181689e-05;0.0013365848;-0.0001950999;0.4022381783;0.1803054009;8.614118886
1441927243281080000;-0.0026122617;0.0132151303;-0.4215210936;0.9067185363;0.000805732;0.0025145882;-0.0013690702;0.3972389035;0.1814632289;8.6131375551
1441927243301380000;-0.0026244067;0.0132303995;-0.4215207599;0.9067184337;-0.0010743674;0.0021535001;-0.0005151043;0.3960088082;0.2118960042;8.6129938602
1441927243321300000;-0.0026042335;0.0132114744;-0.4215291172;0.9067148826;-0.0005524851;0.0016827872;-0.0003877361;0.3974361919;0.2635503151;8.6123051763
1441927243341560000;-0.0025998855;0.0131999072;-0.4215372434;0.9067112856;-0.0007475494;-0.0001304583;-0.0008481536;0.3959701829;0.2289203972;8.6127263308
1441927243361120000;-0.0026235076;0.013210966;-0.421544836;0.9067075266;-0.0009993903;0.0019546481;-0.0008270845;0.3957711056;0.1732895605;8.6134389639
1441927243381560000;-0.0026277403;0.013222556;-0.4215446178;0.9067074469;-0.0005375976;0.0028961921;-6.02090751023e-05;0.3966579176;0.1902970139;8.6132140756
1441927243401320000;-0.0026119154;0.0132151987;-0.4215448485;0.9067074926;-0.0004444537;0.0009534881;-0.0003560185;0.3982204534;0.2702798791;8.6275362492
1441927243421300000;-0.0025996548;0.0131999526;-0.4215530899;0.9067039183;-0.0015565502;0.0015861345;0.0001278471;0.3967426524;0.2549456716;8.7033855319
1441927243441190000;-0.00258383;0.0131925952;-0.4215533202;0.9067039635;-0.0009977369;0.0006714352;-0.0003502732;0.3814457558;0.2260563202;8.6879441738
1441927243461410000;-0.0025763547;0.0132084412;-0.4215610232;0.9067001727;0.00052778;0.0022848421;-0.0007548614;0.374584581;0.1902558696;8.6065246701
1441927243481390000;-0.0025999764;0.0132195002;-0.4215685853;0.9066964281;-0.00110388;0.0020485296;0.0001005484;0.3923843093;0.1803455412;8.6144202948
1441927243501210000;-0.0026316262;0.0132342157;-0.4215681236;0.9066963368;-0.0020571365;0.0018388992;-0.0006378025;0.3978905685;0.1803363595;8.6334890723
1441927243521110000;-0.002635743;0.0132458288;-0.421575813;0.9066925801;0.0003343192;0.0028808786;-0.0011030233;0.3977916688;0.1958276968;8.6409109712
1441927243541540000;-0.0026118907;0.0132348148;-0.4215840677;0.9066889718;-1.37357278513e-05;0.0012453482;-0.0005345466;0.3968337759;0.2684395187;8.6071082115
1441927243561110000;-0.0026075432;0.0132232475;-0.421592194;0.9066853745;-0.0005860764;0.0014786217;-0.0007279271;0.3962696202;0.2363622475;8.6228562355
1441927243581380000;-0.002572098;0.0132164647;-0.4216004909;0.9066817167;-4.32387460022e-05;0.0027703242;-0.0006340113;0.3970108755;0.2526400004;8.6724882126
1441927243601330000;-0.0025560427;0.0132091508;-0.4216165373;0.9066744071;-0.0013993891;0.0010012659;-0.0019026841;0.3981265917;0.2594363008;8.6024095058
1441927243621270000;-0.0025437837;0.0131939035;-0.4216247781;0.9066708315;-0.0014636586;0.0009134626;-0.0015815841;0.3962760456;0.2401126437;8.6079937458
1441927243641500000;-0.0025394376;0.0131823344;-0.4216329033;0.9066672334;0.0002267703;0.0016989121;-0.0005822731;0.41229598;0.2632783316;8.6136305571
1441927243661420000;-0.0025192666;0.0131634069;-0.4216412581;0.9066636794;-0.0008226659;0.0011674799;0.0003535263;0.4037298523;0.2488590654;8.6122765541
1441927243681340000;-0.0025071235;0.0131481361;-0.4216415897;0.9066637804;0.0007256674;-0.0002112077;-2.23898106743e-05;0.3937574059;0.1904391024;8.6134202719
1441927243701270000;-0.0025228329;0.0131555171;-0.4216492679;0.906660059;-0.000278351;0.0033456692;-0.0016256977;0.395091366;0.1863204516;8.6131375551
1441927243721250000;-0.0025379916;0.0131433961;-0.4216572951;0.9066564593;-0.0008344713;0.0001506354;-0.0007685307;0.3980802268;0.2107243396;8.6130037904
1441927243741370000;-0.0025262842;0.0131476494;-0.4216652155;0.9066527468;-0.0005979383;0.0014454582;-0.0006267121;0.3961901426;0.2415841289;8.6125779629
1441927243761130000;-0.0025419934;0.0131550309;-0.4216728937;0.9066490248;-0.0009190969;0.0023422572;-0.0007122583;0.3969396122;0.2028599475;8.6130610347
1441927243781310000;-0.0025261695;0.0131476714;-0.4216731232;0.906649069;-0.002129457;0.0018591481;-0.0002885409;0.3974819727;0.2569065992;8.6123816967
1441927243801250000;-0.0025023188;0.0131366538;-0.4216813749;0.906645457;0.0011367456;0.0011933604;-0.0007055695;0.3971209832;0.2645496078;8.6122765541
1441927243821260000;-0.0024942923;0.0131329957;-0.4216893972;0.906641801;0.0001337681;0.0013656598;-0.0004624692;0.3815068699;0.2366378088;8.6125732899
1441927243841390000;-0.0025179137;0.0131440575;-0.4216969608;0.9066380574;-0.0011919025;0.0010580849;-0.000503724;0.4086182527;0.1684918273;8.6135493636
1441927243861290000;-0.0025300558;0.0131593291;-0.4216966293;0.9066379563;-0.0013539279;0.0032947539;-0.0004393904;0.4000269346;0.2117351506;8.6129652381
1441927243881240000;-0.0025104359;0.0131599028;-0.4217046645;0.9066342651;-0.0008216621;0.0029812614;-0.0015543732;0.3848310553;0.2675268225;8.6122000337
1441927243901250000;-0.0024951614;0.013172045;-0.4217045755;0.9066341723;-0.0008483871;0.0004844368;-0.000625168;0.3316782616;0.2344914578;8.6124149919
1441927243921220000;-0.0024803203;0.0132037114;-0.4217121051;0.9066302501;0.0002637513;0.001000477;-0.0010130477;0.4015114166;0.1782473076;8.6134009957
1441927243941400000;-0.0024722929;0.0132000526;-0.4217201278;0.9066265936;-0.0002471629;0.0024319742;-0.0009691962;0.395591706;0.2707087733;8.6122047067
1441927243961070000;-0.0024521241;0.0131811229;-0.4217284825;0.9066230375;-0.0003689389;0.0013364745;3.02386465014e-05;0.3972026147;0.2556331143;8.6123957157
1441927243981260000;-0.0024521241;0.0131811229;-0.4217284825;0.9066230375;-0.000671343;0.0027855866;0.0004704846;0.3963249661;0.2558040988;8.6124103189
1441927244001260000;-0.0024405306;0.0131853531;-0.4217284958;0.9066230011;-0.0008313608;0.0028536255;0.0005611132;0.3979152113;0.2639637116;8.6122952461
1441927244021300000;-0.0023929452;0.0131632923;-0.421737093;0.9066194493;-0.0004257398;0.0025408999;-0.0014401079;0.3965493798;0.2563037269;8.6123863697
1441927244041350000;-0.0023770071;0.0131559524;-0.4217452301;0.9066158126;-0.0015215505;0.0019410732;-0.0003143381;0.3972324051;0.2572435848;8.6123863697
1441927244061270000;-0.0023612981;0.0131485708;-0.4217375522;0.9066195323;-0.0019022491;0.0021706824;0.000645989;0.3969861232;0.2579383291;8.6123816967
1441927244081250000;-0.0023573867;0.0131565235;-0.4217532659;0.9066121173;-0.0009825046;0.0016625263;-0.0020043552;0.3961195365;0.1898834165;8.6132333517
1441927244101260000;-0.0023609541;0.0131486326;-0.4217612743;0.906608497;0.0009471714;0.0014542508;-0.0006097476;0.3974425443;0.2377159037;8.6126211882
1441927244121120000;-0.0023766625;0.0131560147;-0.4217689823;0.906604763;-0.0001678917;0.0013141739;-0.0007983632;0.3956694677;0.2041616164;8.6130277395
1441927244141370000;-0.002364406;0.0131407635;-0.4217772201;0.9066011838;-0.0006641906;0.0012000166;-0.0013178465;0.3960402779;0.202893918;8.6130709648
1441927244161260000;-0.0023720887;0.0131444857;-0.4217929198;0.9065938057;-0.0016327958;0.0022240466;-0.0010512015;0.3970750198;0.2168343108;8.6129079938
1441927244181260000;-0.0023725211;0.0131640088;-0.4218005099;0.9065899899;-0.0009163893;0.0033358587;6.49467108834e-05;0.3973522969;0.2494664464;8.6124728203
1441927244201260000;-0.0023370783;0.0131572159;-0.4218087754;0.906586335;0.0010957594;0.0022607603;-0.0020618869;0.3637903064;0.247519191;8.6123816967
1441927244221250000;-0.0023290522;0.0131535552;-0.4218167973;0.9065826763;-0.0025945719;0.0019192901;-0.0001880815;0.4092413321;0.2413113605;8.612615931
1441927244241290000;-0.0023216871;0.0131693776;-0.4218165954;0.9065825595;9.95288180197e-05;0.0017726012;-0.0002929068;0.3998878762;0.2232658431;8.6128221273
1441927244261340000;-0.0023253697;0.0131614664;-0.4218166963;0.9065826179;-0.000578326;0.0021248813;9.30681167016e-05;0.3947185114;0.231012461;8.6127023816
1441927244281280000;-0.00230152;0.0131504433;-0.421824978;0.9065789854;-0.0007021728;0.0015759002;-4.8460904311e-05;0.3969588883;0.2538712092;8.6277225852
1441927244301260000;-0.0023093166;0.0131541446;-0.4218327703;0.9065752861;-0.0010232191;0.0011002697;-0.0015217033;0.3962257013;0.2103315152;8.6338523984
1441927244321280000;-0.0023250248;0.0131615273;-0.4218404476;0.9065715665;-0.0014147311;0.0017127716;-0.0003878814;0.396806176;0.2047336943;8.7018784881
1441927244341210000;-0.0023207959;0.0131499348;-0.4218406633;0.9065716452;-0.0020133219;0.0023080967;-0.0003946796;0.3974642664;0.2596902858;8.6199519634
1441927244361080000;-0.0023048588;0.0131425925;-0.4218487998;0.9065680063;-0.0001482676;0.0009100121;0.000246131;0.397110834;0.2653174955;8.6193725109
1441927244381270000;-0.0022848071;0.0131236383;-0.4218492442;0.9065681248;-0.0007185462;0.0021327538;-0.0006622936;0.3964832276;0.2385142755;8.6109984875
1441927244401080000;-0.0022969476;0.0131389112;-0.4218489144;0.9065680264;0.0001054178;0.0015331679;-0.0003780248;0.3960554287;0.1676611096;8.6127310038
1441927244421280000;-0.0023241343;0.0131420855;-0.421864485;0.9065606655;-0.0016556333;0.0014817551;-0.0015895325;0.3967208937;0.1837634422;8.6138361692
1441927244441260000;-0.0023361598;0.013157379;-0.4218720615;0.9065568871;-0.0008035407;0.0017138235;0.0001403028;0.3965303227;0.2144203756;8.6127502799
1441927244461270000;-0.002363461;0.0131605343;-0.4218797551;0.9065531902;-0.0006526477;0.0014503575;-0.0006369117;0.396056962;0.1673691746;8.6135779858
1441927244481050000;-0.002371372;0.0131642159;-0.4218796402;0.9065531695;-0.0004640408;0.0009882669;-5.00758195662e-05;0.3958479546;0.2094760817;8.6129558921
1441927244501310000;-0.0023555494;0.0131568525;-0.4218798699;0.9065532108;-0.0007194478;0.0025550841;-0.0001548573;0.3973568603;0.2647037257;8.6122765541
1441927244521270000;-0.0023318162;0.0131458079;-0.4218802142;0.9065532721;0.0006453107;0.0024219887;-0.0002163267;0.3976325676;0.2617504235;8.6276413918
1441927244541330000;-0.002315879;0.0131384648;-0.4218883504;0.9065496331;-0.0014656297;0.0010731732;-0.0009341129;0.3975103028;0.2379395325;8.6848144293
1441927244561260000;-0.0023157644;0.0131384849;-0.4218962572;0.9065459534;-0.0017316325;0.0020618192;-0.0002293931;0.3968984678;0.248766299;8.6439157128
1441927244581250000;-0.0022999424;0.0131311216;-0.4218964864;0.9065459937;8.40419691137e-05;0.0028494471;-9.81076174987e-05;0.3961527951;0.2284413047;8.5927147746
1441927244601320000;-0.0022884631;0.0131353298;-0.4218885937;0.9065496349;-0.000465941;0.002638705;0.0007055397;0.397562363;0.2398822974;8.6113910198
1441927244621330000;-0.0022846653;0.0131432607;-0.4218963999;0.9065458967;-0.0016508487;0.0025171964;-0.0011226784;0.3970275961;0.2010074846;8.614970541
1441927244641210000;-0.002292347;0.0131469823;-0.4219120986;0.9065385171;-0.0006507978;0.0011030781;-0.0016888418;0.3967671126;0.2284535531;8.6118694186
1441927244661310000;-0.0022800935;0.0131317275;-0.4219203352;0.9065349357;-0.0006952417;0.0005501849;-0.0013519022;0.3960275732;0.2605256036;8.6468871594
1441927244681100000;-0.0022641572;0.0131243835;-0.421928471;0.9065312954;-0.0002082978;0.0018870598;-0.0002349741;0.3779441424;0.2631156527;8.680871582
1441927244701390000;-0.0022445365;0.0131249497;-0.4219365366;0.906527582;-0.0005308592;0.0022279272;-0.0008432637;0.4040729895;0.2194672018;8.6220332027
1441927244721280000;-0.0022286004;0.013117605;-0.4219446722;0.9065239409;0.0004150426;0.0010681413;-0.0004586303;0.3899854884;0.2712509878;8.6392456293
1441927244741280000;-0.0022047531;0.0131065777;-0.421952922;0.9065203187;-0.0003581084;0.0018616868;-0.0007703677;0.3981396616;0.2613762364;8.6033855796
1441927244761290000;-0.0021847045;0.0130876204;-0.4219533647;0.9065204351;-0.0005226478;0.0023319572;-0.0005855029;0.3962835662;0.2540848166;8.6201908708
1441927244781190000;-0.0021687684;0.0130802748;-0.4219614996;0.9065167929;-0.0024870114;0.0008082665;0.0002380149;0.3975558646;0.2579102729;8.611587286
1441927244801090000;-0.0021571738;0.0130845031;-0.4219615142;0.9065167527;2.85177956598e-05;0.0037347357;-0.0009096474;0.3966706589;0.2246831324;8.6129366159
1441927244841310000;-0.0022044102;0.0131066354;-0.4219766415;0.9065092778;-0.0009998891;0.0014464069;-0.0009107043;0.3967349127;0.2247595981;8.6126977086
1441927244861260000;-0.0021805639;0.0130956072;-0.4219848909;0.9065056547;3.30040939894e-05;0.0003220783;-0.0008802619;0.3958809577;0.2701372612;8.6123051763
1441927244881060000;-0.0021684261;0.0130803315;-0.421985219;0.9065057517;-0.0007196263;0.0017399708;0.0002316308;0.3970720261;0.2583570924;8.6123145223
1441927244901250000;-0.0021524903;0.0130729854;-0.4219933838;0.9065020948;-0.0012404185;0.0024612971;-0.000862523;0.3972389035;0.2549148224;8.6124196649
1441927244921260000;-0.0021524903;0.0130729854;-0.4219933838;0.9065020948;-0.0003432325;0.0014823465;9.85693794595e-05;0.3969565518;0.1913126804;8.6132240057
1441927244941290000;-0.0021567169;0.0130845784;-0.4219931702;0.9065020169;-0.0001512246;0.0023746952;-0.0016942197;0.396659451;0.1836725924;8.6133098722
1441927244961250000;-0.002160715;0.0130962092;-0.4220087691;0.9064945777;-0.0004622915;0.002121075;-0.0010844793;0.3975303456;0.2498213392;8.6124728203
1441927244981360000;-0.0021447797;0.0130888625;-0.4220169039;0.9064909345;-0.0011199829;0.0012012408;-0.0010047159;0.3969210297;0.2510472361;8.6124582171
1441927245001080000;-0.0021368692;0.0130851798;-0.4220170181;0.9064909532;1.1219527061e-05;0.0004501799;0.0001944201;0.3966847874;0.2632702816;8.6123005033
1441927245021250000;-0.0021602577;0.0130962846;-0.4220404243;0.9064798403;-0.0017943964;0.0021641753;-0.0004464826;0.3955805346;0.1736978825;8.6134249449
1441927245041320000;-0.002180191;0.0131152621;-0.4220478877;0.9064760434;-0.000574284;0.0038036983;-0.0013615574;0.3972269654;0.2096470296;8.5976675749
1441927245061220000;-0.0021563451;0.0131042316;-0.422056137;0.9064724191;-1.68371481885e-06;0.0009875321;-0.000553603;0.3977414705;0.2695795674;8.5957487226
1441927245081090000;-0.0021440943;0.0130889748;-0.4220643712;0.9064688346;-0.001011114;0.0012328821;-0.0010610721;0.396501445;0.2608878162;8.6144535899
1441927245101140000;-0.0021239335;0.0130700334;-0.4220727191;0.9064652685;0.0010859721;0.0004514158;-0.0008402271;0.3958560593;0.2562661786;8.6111088872
1441927245121310000;-0.0020886071;0.0130632104;-0.4220730761;0.9064652827;6.46313423209e-05;0.0026346101;-0.0002776399;0.3819218546;0.2565773167;8.6129751682
1441927245161190000;-0.0020579342;0.0130875007;-0.4220808144;0.9064613992;0.0002815618;0.0019956967;-0.0013464364;0.342532263;0.2562457159;8.6123770237
1441927245181160000;-0.0020028743;0.013081255;-0.4220971441;0.9064540089;-0.0018919038;0.0022687264;0.000435018;0.4018133365;0.2569580752;8.6125394106
1441927245241220000;-0.0019630949;0.0130628718;-0.4221135263;0.9064467323;0.0004963848;0.0019230833;-0.0004330019;0.3974094316;0.2571867056;8.6123816967
1441927245261230000;-0.0019434751;0.0130634314;-0.422121562;0.9064430244;-0.0011882131;0.0025148633;0.0002470291;0.3985872112;0.2563758664;8.6123670936
1441927245281140000;-0.0019428211;0.0130439456;-0.422129778;0.9064394803;-0.0018285463;0.0009106887;-0.0013467386;0.3964569785;0.2251624621;8.6981891513
1441927245301400000;-0.0019781471;0.0130507708;-0.4221294207;0.906439472;-0.0007242617;0.0008838866;0.0003608181;0.3945756197;0.1684270624;8.615649879
1441927245321040000;-0.0019860572;0.0130544545;-0.4221293068;0.9064394547;-5.51365082933e-05;0.0017256085;-8.79666775791e-05;0.3951186739;0.1970110439;8.6125680327
1441927245341680000;-0.0019859434;0.0130544718;-0.4221372126;0.906435773;0.000123587;0.0013476601;-0.0013759456;0.3964452229;0.2427845798;8.6126924515
1441927245361390000;-0.0019657843;0.0130355274;-0.4221455582;0.9064322029;-0.0006052762;0.0018106709;-0.0007149982;0.3977003627;0.250222031;8.6140517116
1441927245381510000;-0.0019539611;0.0130397876;-0.4221614155;0.9064247819;-0.0001900198;0.0012107906;-0.0008915872;0.3969943374;0.1872993;8.6140131593
1441927245421450000;-0.0019074653;0.0130567064;-0.4221693846;0.9064209258;-0.0006489359;0.0027299957;-0.0010388852;0.3225257084;0.2638175707;8.6119319201
1441927245441090000;-0.0019196005;0.0130719836;-0.4221690586;0.9064208318;-0.0013943858;0.0022271361;-0.0003676836;0.4117417544;0.1715419848;8.6135254145
1441927245461340000;-0.0019316207;0.0130872784;-0.4221766378;0.9064170555;-0.0015768376;0.0015419479;-0.0005618674;0.3934567273;0.1991806138;8.613113606
1441927245481340000;-0.0019588081;0.0130904555;-0.4221922047;0.9064097006;0.0013323028;0.0007887422;-0.001594841;0.3962979868;0.1872274525;8.6132426977
1441927245501380000;-0.0019783131;0.0130899153;-0.4221920747;0.9064097266;-0.0006746943;0.0013741539;-0.0001871241;0.3951851912;0.1749526754;8.6134009957
1441927245521020000;-0.0019738604;0.0130783558;-0.4222081287;0.9064024253;0.0001148498;0.0013859476;-0.00065692;0.3970910467;0.2622336961;8.6123098493
1441927245541780000;-0.0019617268;0.0130630773;-0.4222084552;0.9064025198;-0.0002171563;0.0010074182;-0.0011492125;0.3976290993;0.2570692964;8.6123723507
1441927245561100000;-0.0019537027;0.0130594097;-0.4222164747;0.9063988545;0.0007818465;0.0019342908;-0.0018772655;0.3970309913;0.2623626418;8.6123191953
1441927245581090000;-0.001921722;0.0130447218;-0.4222406466;0.9063878742;-0.0005792478;0.0019730241;-0.0014313525;0.3977653831;0.2569977775;8.6123770237
1441927245601430000;-0.0019060164;0.0130373358;-0.4222329688;0.9063915903;-0.0018953746;0.0003748727;1.54089647735e-05;0.3976261787;0.2563681632;8.6123770237
1441927245621360000;-0.0019052515;0.0130178662;-0.4222490888;0.9063843623;-0.0002742169;0.0007155715;-0.0008493727;0.396140492;0.2585274015;8.6123770237
1441927245641100000;-0.0018893183;0.0130105129;-0.4222572213;0.9063807126;-0.000784082;0.0024341279;-0.0001959582;0.3962683789;0.2560756259;8.542293644
1441927245661310000;-0.0018893183;0.0130105129;-0.4222572213;0.9063807126;-0.000536436;0.0017351583;0.0001828192;0.3978410639;0.1890639979;8.6268469811
1441927245681320000;-0.0019129335;0.0130215844;-0.422264816;0.9063769658;-0.0019795852;0.0021919966;-0.0018325742;0.3969530836;0.2022443157;8.6107835293
1441927245701320000;-0.001917043;0.0130331955;-0.4222725098;0.9063732058;-0.0009077266;0.00326272;-0.0013236124;0.3962405235;0.224826736;8.6103717208
1441927245721070000;-0.0018968874;0.0130142477;-0.4222808537;0.9063696331;0.0001614158;0.0006721047;-0.000467177;0.3975923724;0.2710872501;8.6131568313
1441927245741370000;-0.0019083699;0.01301004;-0.422288743;0.9063659937;-0.000546586;0.0015018779;-0.0005963757;0.3955093443;0.2037034612;8.6133338213
1441927245761140000;-0.0019124792;0.0130216512;-0.4222964369;0.9063622335;9.73506874357e-05;0.0032491878;-0.0003619893;0.3963528216;0.2058725931;8.628177619
1441927245781310000;-0.0018844144;0.0129990173;-0.4223048938;0.9063586769;0.000501439;0.0031238037;-0.0012315432;0.3976947404;0.2457064305;8.6244544029
1441927245801030000;-0.0018684823;0.0129916631;-0.4223130257;0.9063550263;-0.0014719404;0.0010693152;-0.0006329692;0.3970357738;0.2618116289;8.6652193546
1441927245821430000;-0.0018721687;0.0129837548;-0.422313123;0.9063550867;-0.0003050432;0.0002868241;0.0004903538;0.3965622306;0.2250108816;8.6127502799
1441927245841190000;-0.0019036927;0.012998513;-0.4223206048;0.9063513234;-0.0025340802;0.0020114551;-0.0009005708;0.3954246096;0.1932745207;8.6060842395
1441927245861350000;-0.0019116021;0.0130021984;-0.4223204913;0.9063513067;-0.0010642518;0.0013479106;-0.0006819069;0.3961489253;0.1982471995;8.6129319429
1441927245881030000;-0.0019581821;0.0130048594;-0.4223438345;0.9063402918;0.0001463039;0.0013985806;-0.0006817905;0.3962883122;0.1891924873;8.6130178094
1441927245901080000;-0.0019819102;0.0130159164;-0.4223434939;0.9063402402;-0.0010843554;0.0012407294;-0.0009167989;0.3952837259;0.176631014;8.6133005261
1441927245921090000;-0.002009325;0.0130190641;-0.4223432513;0.9063402477;-0.0004197678;0.0004340573;5.30737468314e-07;0.3969082884;0.1812420279;8.6482464194
1441927245941260000;-0.0020250303;0.0130264532;-0.422350929;0.9063365289;-0.0020786971;0.0023406042;-0.0001752577;0.3971217863;0.2484610386;8.6058021069
1441927245961240000;-0.0020134335;0.0130306764;-0.4223509443;0.9063364869;0.000845216;0.0023091188;0.0003234223;0.3972448178;0.2036343884;8.6093716979
1441927245981180000;-0.0020212294;0.0130343799;-0.4223587355;0.9063327855;-0.0003610258;0.0012338488;-0.0008938364;0.3972314924;0.1907173835;8.6158794403
1441927246001160000;-0.002024689;0.0130265062;-0.4223746739;0.9063254634;0.0008171643;0.0013814885;-0.0017304825;0.3959127195;0.2437630996;8.6117163777
1441927246021280000;-0.0020204668;0.0130149112;-0.4223748859;0.9063255406;-0.0021011832;0.0008130786;-0.0001993072;0.3957004264;0.2493159428;8.5786174893
1441927246041310000;-0.0019896722;0.0130392091;-0.4223905296;0.9063179689;0.000404725;0.0023990031;-0.0008455543;0.3464309357;0.2249186628;8.5436908722
1441927246061220000;-0.0019975812;0.0130428951;-0.4223904158;0.9063179515;-0.0010460676;0.0024493131;-0.0014701518;0.404743237;0.2442298342;8.6199467063
1441927246081100000;-0.0019858713;0.0130471343;-0.422398336;0.9063142249;-0.0014011992;0.000531761;0.0007308261;0.3352113813;0.2303149056;8.6105107427
1441927246101280000;-0.0019831377;0.0130940672;-0.4224055201;0.9063102058;-0.0004577621;0.0021261042;-0.000845811;0.3231746353;0.1707766891;8.6129652381
1441927246121140000;-0.0019920008;0.0131367766;-0.4224126862;0.9063062284;-9.60011942819e-05;0.0018721228;-0.0012594029;0.3854811139;0.1821917977;8.6130896568
1441927246141270000;-0.0020193011;0.0131399443;-0.422420346;0.9063025519;-0.0002328955;0.0020188359;-0.0009008432;0.388608449;0.1811515067;8.6133723736
1441927246161270000;-0.0020466;0.0131431132;-0.422428036;0.9062988604;-0.0012933713;0.0010342673;-0.0001174975;0.397497306;0.1799245328;8.6134202719
1441927246181280000;-0.0020740149;0.0131462637;-0.4224277913;0.9062988665;-0.0003950258;0.0001068972;0.0003099975;0.3966228336;0.194271769;8.613108933
1441927246201140000;-0.0020580826;0.0131389089;-0.4224359253;0.9062952181;-8.27073814696e-05;0.0016453182;-0.0008425768;0.3960848175;0.2698598746;8.612247932
1441927246221280000;-0.0020343557;0.0131278495;-0.4224362691;0.9062952717;-0.0004732262;0.0017740074;-0.0008515035;0.3979373716;0.2535937861;8.6124196649
1441927246241510000;-0.002018538;0.0131204767;-0.4224364982;0.9062953071;0.0002145263;0.0034799973;0.0001277411;0.3975943804;0.2564782526;8.6123723507
1441927246261330000;-0.0020105143;0.0131168076;-0.4224445172;0.9062916402;-0.0013931572;0.0009007179;-0.0006086044;0.3970580801;0.2256668545;8.6127789021
1441927246281050000;-0.0020177756;0.0131010088;-0.4224526196;0.9062880758;-0.0010219042;0.0005061412;-0.0007438851;0.3963195995;0.228006259;8.6127549529
1441927246301320000;-0.0020255705;0.0131047132;-0.4224604097;0.9062843736;-0.0014567746;0.0020713755;-0.0005327734;0.3957672358;0.2528411951;8.612443614
1441927246321310000;-0.0020370531;0.013100509;-0.4224682989;0.9062807311;4.51977842873e-05;0.0005169935;-0.001359655;0.3966959953;0.1582660895;8.6136159539
1441927246341120000;-0.0020528705;0.0131078824;-0.4224680701;0.9062806954;-0.0006565704;0.0012093046;0.0001982064;0.3968197569;0.1907563373;8.6132000566
1441927246361070000;-0.0020838587;0.0131031447;-0.4224758299;0.9062770759;0.000344137;2.08928249018e-05;0.0001054339;0.3957880087;0.181940569;8.6133244753
1441927246381240000;-0.002111273;0.0131062964;-0.4224755862;0.9062770805;-0.0007227029;0.0016797771;-0.0003796949;0.3960305668;0.1796483327;8.6822734833
1441927246401020000;-0.0021343522;0.0130978727;-0.4224834911;0.9062734632;0.0004503621;-0.0012088209;-0.0015152853;0.3964955308;0.1809982285;8.6691049576
1441927246421280000;-0.0021536289;0.0130973763;-0.4224991708;0.9062661151;-0.0006615567;0.0020695817;-0.000218275;0.3958828196;0.1795043457;8.6022272587
1441927246441100000;-0.0021573174;0.0130894679;-0.4224992704;0.9062661741;-0.0005707144;0.0009896974;-0.0011992763;0.3974319205;0.2639236808;8.6169799328
1441927246461190000;-0.0021370522;0.0130705358;-0.4225155209;0.9062589192;-1.19588807729e-05;0.0007453333;-0.0012749425;0.3975799963;0.2559464794;8.611764276
1441927246481300000;-0.0021291432;0.0130668485;-0.422515635;0.9062589379;0.0004372214;0.0018370073;-0.0005240943;0.3964423753;0.2055405542;8.6134775162
1441927246501180000;-0.0021249229;0.013055254;-0.4225158482;0.9062590155;-0.0010321072;0.0008262205;0.0009895801;0.3968736425;0.229964412;8.612601912
1441927246521300000;-0.0021126807;0.0130399898;-0.4225240793;0.9062554263;-0.0004187444;0.0010728836;-0.0006852399;0.3972444162;0.2763665948;8.6120464087
1441927246541300000;-0.0021005515;0.0130247078;-0.4225244057;0.9062555221;-0.0002306915;0.0014192504;-0.0003641455;0.3965321481;0.2443506021;8.612615931
1441927246561420000;-0.002112567;0.0130400082;-0.4225319835;0.9062517411;-0.0012423865;0.0013086092;-0.0005670599;0.3963586263;0.1835680705;8.6132666469
1441927246581320000;-0.0021204754;0.0130436955;-0.4225318697;0.9062517226;-1.43139624723e-05;0.0019120625;-0.0006507262;0.3972217813;0.1860086381;8.613276577
1441927246601030000;-0.0021202475;0.0130437325;-0.4225477082;0.9062443379;-0.0009609568;0.0030713696;-0.0006609005;0.3968347982;0.2273081377;8.6127450228
1441927246621250000;-0.0021163309;0.0130516777;-0.4225634173;0.9062369079;0.0004513134;0.0012882762;-0.0009858869;0.3970430024;0.2324219558;8.6126977086
1441927246641260000;-0.0021357227;0.0130511632;-0.4225711927;0.9062332442;-3.56223881744e-05;0.0010279515;-0.0007985323;0.3958446689;0.1646371465;8.6135394335
1441927246661260000;-0.0021516537;0.0130585198;-0.4225630608;0.9062368924;-0.0003369541;0.0011020317;0.0004992534;0.3952641211;0.1839025006;8.6133051992
1441927246681240000;-0.0021673563;0.0130659137;-0.4225707369;0.9062331691;-0.0005013519;0.0027969787;-0.0003356863;0.3960117288;0.1832046896;8.6132958531
1441927246701320000;-0.0021672424;0.0130659326;-0.4225786409;0.9062294835;-0.000344548;0.0013665413;-0.0015610643;0.3978845082;0.2490802299;8.6124821663
1441927246721260000;-0.0021477367;0.0130664655;-0.4225787695;0.9062294623;-0.0005717585;0.0027421537;9.95418542451e-05;0.3967583872;0.2492845278;8.6124821663
1441927246741280000;-0.0021238976;0.0130554208;-0.4225870154;0.9062258325;0.0005276867;0.0020709029;-0.0004080227;0.3971383609;0.2440194394;8.6478159189
1441927246761100000;-0.0021315776;0.0130591458;-0.4226027395;0.9062184282;2.59419911173e-05;0.0019436935;-0.0018363362;0.3961019762;0.1689156286;8.6129938602
1441927246781270000;-0.0021514995;0.0130781354;-0.4226102019;0.9062146273;-0.0010670338;0.00134682;-0.0004350822;0.3964352928;0.1824623756;8.6193298698
1441927246801090000;-0.0021787993;0.0130813114;-0.4226178629;0.9062109435;-0.0004214803;0.0022703573;-0.0004733787;0.3958364181;0.1808430884;8.6109745383
1441927246821310000;-0.0022024094;0.0130923946;-0.4226254242;0.9062072001;-0.0005683818;0.0009933915;-0.0015704312;0.3805100232;0.1804612529;8.6147310495
1441927246841270000;-0.0022143081;0.0131077165;-0.4226409031;0.9061997305;-0.0002921068;0.0018132884;-0.0007123882;0.3912954263;0.197800453;8.6125586867
1441927246861250000;-0.0022099748;0.0130961408;-0.4226490514;0.9061961082;-0.0007519931;0.0015352332;-0.0006820513;0.4143724002;0.2574676517;8.6278090358
1441927246881300000;-0.0021898262;0.013077187;-0.4226573975;0.9061925381;-0.0007111812;0.0023043914;-0.0006663576;0.4010434955;0.2645095404;8.6179326415
1441927246901270000;-0.0021740103;0.0130698103;-0.4226576257;0.9061925762;-0.0007624092;0.0016092211;-0.0006169076;0.3958890989;0.2387356408;8.6103956699
1441927246921270000;-0.0021854937;0.0130656109;-0.4226655149;0.9061889295;0.0008479502;0.0005754246;-0.0005984774;0.3976013169;0.1873652514;8.6145873547
1441927246941370000;-0.0021932876;0.0130693184;-0.4226733045;0.9061852239;-0.0012964944;0.0021601091;-0.0016937;0.3952211879;0.1859109614;8.6124868393
1441927246961250000;-0.0022325991;0.0130878;-0.422688541;0.9061777542;-0.0007747147;0.0010959297;-0.0006542541;0.3970188342;0.2045065973;8.6817617893
1441927246981360000;-0.0022166694;0.0130804421;-0.4226966729;0.9061741064;0.0001870366;0.0006032307;-0.0008508051;0.3971629672;0.2347913515;8.6151235819
1441927247001260000;-0.0022244626;0.0130841502;-0.4227044925;0.9061703862;-0.0012257265;0.0029984499;-0.0008835564;0.3963205852;0.2006284237;8.6217224479
1441927247021310000;-0.0022244626;0.0130841502;-0.4227044925;0.9061703862;-0.0013351817;0.0028046077;-0.00052339;0.3968570314;0.2271612849;8.6162912488
1441927247041220000;-0.0022043153;0.0130651954;-0.4227128381;0.9061668159;-0.0005303429;0.0013068313;-0.0001829949;0.3970241643;0.2631627113;8.610563314
1441927247061260000;-0.0022042013;0.0130652146;-0.4227207415;0.906163129;-0.0019857348;0.0011045994;-0.001397571;0.3958318546;0.2431182433;8.6122187257
1441927247081080000;-0.0021919626;0.0130499484;-0.4227289725;0.9061595389;-4.82075837929e-05;0.0021874883;-0.0010340926;0.397176183;0.264516988;8.6120849609
1441927247101430000;-0.0021723425;0.0130504967;-0.4227370041;0.9061558314;0.0001047247;0.0030775726;-0.0001563602;0.3972470813;0.2580965724;8.6123670936
1441927247121080000;-0.0021644349;0.0130468077;-0.422737118;0.9061558503;-9.37918710338e-05;0.0032585906;-0.0007251234;0.3974738315;0.2485942923;8.6125253916
1441927247141360000;-0.0021331033;0.0130515916;-0.4227530677;0.9061484148;-0.0002197051;0.0026850882;-0.0011773292;0.3968007363;0.2516264878;8.612443614
1441927247161040000;-0.0021092665;0.0130405425;-0.4227613427;0.906144769;-0.0010820241;0.0007943269;-0.0002192152;0.3964952387;0.2601781949;8.6123624206
1441927247181350000;-0.0020891202;0.0130215863;-0.422769686;0.9061411957;0.0002050169;0.0029030521;-0.0015027439;0.3963235423;0.2559873134;8.6123816967
1441927247201060000;-0.0020812127;0.013017897;-0.4227697996;0.9061412139;-0.0023344466;-0.0001489664;-0.0002129276;0.39706655;0.2568841469;8.6123816967
1441927247221740000;-0.0020810992;0.0130179152;-0.4227777028;0.9061375265;-0.0021665423;0.0022592922;-0.0004702255;0.3975732058;0.2565143224;8.6123624206
1441927247241360000;-0.0020689752;0.0130026291;-0.4227780285;0.9061376218;-0.0016527644;0.0003192043;-0.001019154;0.3970278151;0.2583762955;8.6123816967
1441927247261300000;-0.0020646448;0.0129910501;-0.4227861437;0.9061340114;-0.0006562789;-0.0001239958;-0.0008879686;0.3965467878;0.2418550536;8.6125633597
1441927247281060000;-0.0020876151;0.012982652;-0.4228019203;0.9061267179;-0.0005118412;0.0018578171;-0.0014504212;0.395198407;0.1852718916;8.613271904
1441927247301290000;-0.0020875019;0.0129826703;-0.4228098234;0.9061230302;-0.0008584412;0.0007878491;0.0001290762;0.3965162307;0.210424665;8.6129751682
1441927247321290000;-0.0021306159;0.0129932312;-0.4228172886;0.9061192951;-0.0016616614;0.0008686837;-0.0011106263;0.397615993;0.1904421873;8.6132094026
1441927247341500000;-0.0021148009;0.0129858515;-0.4228175153;0.9061193321;0.0002801699;0.0020805924;-0.0004506386;0.3640524693;0.2747010157;8.6468538642
1441927247361450000;-0.0021109968;0.0129937761;-0.4228253196;0.9061155857;-0.0023153421;-0.000353239;-0.0003357616;0.3981607996;0.2537638031;8.6529217601
1441927247381350000;-0.002095069;0.0129864148;-0.4228334493;0.9061119345;-0.000500087;0.0019297507;-0.0020240308;0.3904344983;0.2413307279;8.5889150381
1441927247401100000;-0.0021144611;0.0129859068;-0.4228412243;0.9061082685;-0.0007555691;0.0005481607;0.0001680434;0.3956897661;0.205107991;8.6061514139
1441927247421190000;-0.0021102454;0.0129743098;-0.4228414363;0.9061083456;-0.0008071911;0.000777028;-0.0007438429;0.3972175829;0.2538220514;8.6152147055
1441927247441450000;-0.0021096076;0.0129548251;-0.4228496494;0.9061047931;-0.0001097319;0.0018002503;-0.0010118494;0.3964259833;0.246916556;8.6121947765
1441927247461250000;-0.0020820816;0.0129516791;-0.4228577931;0.9061011013;-0.0006688038;0.0015642456;-0.0001256801;0.3972780034;0.2440608211;8.6125586867
1441927247481080000;-0.0020978963;0.0129590595;-0.4228575669;0.9061010648;-0.0007203624;0.0027638226;-0.0003709021;0.3974547379;0.1694986954;8.6475957036
1441927247501280000;-0.0021176993;0.0129780737;-0.4228729647;0.9060935607;-0.0006553457;0.0020654369;-0.0016621044;0.396180395;0.182457155;8.6354844451
1441927247521270000;-0.0021407838;0.0129696601;-0.4228808385;0.9060899521;-0.0003420481;-5.22555796784e-05;-0.0005071;0.3961463697;0.1963162813;8.6172766686
1441927247541260000;-0.0021285481;0.012954391;-0.4228890662;0.9060863594;-0.0013323064;0.0019701971;-0.0007657474;0.396001105;0.26239601;8.6119938374
1441927247561250000;-0.0021047142;0.0129433383;-0.422897308;0.9060827264;0.0023699215;0.0011617979;2.60313977614e-05;0.3980459824;0.2620623101;8.6122093797
1441927247581000000;0;0;0;1;0;0;0;0;0;0
1441927247601260000;-0.0020613741;0.0129328107;-0.422905677;0.9060790702;0.0013277793;0.0025735194;-0.0001558317;0.3969162107;0.2374689646;8.6125347376
1441927247621260000;-0.0020375401;0.0129217567;-0.4229139181;0.9060754353;-6.77020276638e-05;0.0016762563;-0.0013615818;0.3976451628;0.2703538988;8.6121661544
1441927247641320000;-0.0020258289;0.0129259897;-0.4229218357;0.9060717056;-0.0008266462;0.0019765502;0.0002509654;0.3965183482;0.2611769035;8.6123291254
1441927247661250000;-0.0020258289;0.0129259897;-0.4229218357;0.9060717056;-0.0004711961;0.0023953384;-0.0001509836;0.3958105341;0.1713800907;8.6134775162
1441927247681140000;-0.0020611485;0.0129328467;-0.4229214823;0.9060716931;-0.0004666705;0.0016488903;-0.0008115326;0.4645286299;0.1830042616;8.6989689589
1441927247701270000;-0.0020916173;0.0129086202;-0.4229295819;0.9060681881;-0.0001020237;0.0009724465;-0.0005025272;0.4303903997;0.1799198963;8.6692293763
1441927247721090000;-0.0021074315;0.0129160018;-0.4229293565;0.9060681514;-0.0017113027;0.0024530933;-0.0002059373;0.3922907032;0.181454175;8.6115060926
1441927247741220000;-0.0021429353;0.0129424184;-0.4229524016;0.906056934;-7.23043902556e-06;0.0023761537;-0.0011152746;0.3953987986;0.1796699088;8.608878696
1441927247761210000;-0.0021470367;0.0129540346;-0.4229600925;0.9060531681;-0.0012193361;0.002511655;-6.52028231368e-05;0.3990291387;0.2322925355;8.6145493865
1441927247781260000;-0.0021665426;0.01295351;-0.4229599651;0.9060531886;-0.0011432016;0.00072328;-0.0003217122;0.3971440561;0.1788617894;8.6138314962
1441927247801050000;-0.0022017493;0.0129603867;-0.4229675142;0.9060494813;-0.0009654164;0.0015992373;-0.0006920226;0.3954580508;0.1849560075;8.6134728432
1441927247821090000;-0.0022095429;0.0129640971;-0.4229753035;0.906045773;-0.0006016189;0.0019051959;-0.0012576482;0.3968140617;0.2647708636;8.6122286558
1441927247841260000;-0.0021936162;0.012956734;-0.4229834623;0.9060421081;-0.0017418878;0.0016619433;-0.0001317631;0.3980398856;0.2559086025;8.6276939631
1441927247861200000;-0.0021742233;0.0129572389;-0.422975657;0.9060457915;-0.0004203676;0.0026198212;0.0007881413;0.3977132499;0.2589196965;8.6977154255
1441927247881050000;-0.0021506162;0.0129461468;-0.4229680936;0.9060495372;-0.0003201856;0.0019525974;0.0004445119;0.3973487921;0.2579465434;8.6534667492
1441927247901230000;-0.0021346896;0.0129387831;-0.4229762219;0.9060458855;-0.0010469579;0.0023483476;-0.0010028389;0.3969410725;0.2567507107;8.6070077419
1441927247921260000;-0.0021147749;0.0129197848;-0.4229687564;0.9060496885;-4.20081190052e-05;0.0004946771;-9.62892103402e-05;0.397143764;0.2573373005;8.6072612524
1441927247941210000;-0.0020950427;0.0129203456;-0.4229847186;0.9060422745;0.0001681357;0.0016697286;-0.0011645286;0.3963394962;0.2569083881;8.6140084863
1441927247961120000;-0.0020675175;0.0129171965;-0.4229928611;0.9060385813;-0.0009676561;0.0027717827;-5.92349098336e-05;0.3973785825;0.2572468705;8.6122239828
1441927247981130000;-0.0020633032;0.0129055986;-0.4229930717;0.9060386579;-6.57342606342e-05;0.0014633835;-0.000366626;0.3978637353;0.2570017934;8.6124009728
1441927248001050000;-0.0020510704;0.0128903275;-0.423001297;0.906035063;-0.0012752887;0.0007499144;-0.0006440529;0.3961595126;0.2401741412;8.6478924394
1441927248021120000;-0.002066771;0.0128977282;-0.4230089743;0.9060313376;-0.0019646096;0.002192605;-0.0011907825;0.3959796384;0.213889296;8.6123670936
1441927248041170000;-0.002075086;0.0129209421;-0.4230164552;0.9060274951;0.0014494128;0.0016478496;-0.0005106502;0.3968430489;0.1609445971;8.6196505547
1441927248061020000;-0.0021061919;0.012916204;-0.4230163134;0.9060275571;-0.0006980986;0.000670359;-0.0002555633;0.3967160381;0.1781756062;8.6109745383
1441927248081310000;-0.0021139857;0.0129199139;-0.4230241029;0.9060238492;0.0010427746;0.0024903217;-0.0004925448;0.3946829163;0.176999652;8.6118793488
1441927248101140000;-0.0021375918;0.0129310072;-0.4230316968;0.9060200899;-0.0005960615;0.0019289246;-0.0005190068;0.3966950096;0.1789319757;8.6183824182
1441927248121440000;-0.0021532923;0.0129384094;-0.4230393732;0.9060163628;-0.002025587;0.0011404878;-0.0013160752;0.3974960648;0.2131211709;8.6194490314
1441927248141130000;-0.0021178603;0.0129315673;-0.4230476284;0.9060126894;0.0005824316;0.0017480874;-0.0006310544;0.3967981443;0.2504805066;8.6138268232
1441927248161040000;-0.0021020476;0.0129241838;-0.423047854;0.9060127262;-0.0008495027;0.0017239228;0.0001467348;0.3973609857;0.2573060133;8.6116544604
1441927248181230000;-0.002097834;0.0129125856;-0.4230480649;0.9060128029;-0.0018953148;0.0004016077;-0.000411724;0.3972598955;0.2562378302;8.6821730137
1441927248201310000;-0.0020972012;0.0128931006;-0.4230562758;0.9060092478;-0.000828808;8.15927029205e-05;4.15926340192e-05;0.3964624912;0.2594344754;8.6677456975
1441927248221560000;-0.002069676;0.0128899492;-0.4230644175;0.9060055542;0.0001544193;0.0022201003;-0.0010268721;0.3962544695;0.2578921102;8.6104914665
1441927248241260000;-0.0020610257;0.012866789;-0.4230806418;0.905998327;-0.0007277454;0.0019299313;-0.0018500928;0.4034262896;0.2412210766;8.6172527194
1441927248261240000;-0.0020651257;0.0128784052;-0.4230883639;0.9059945465;-0.0013774705;0.0041264123;-0.0009955075;0.4050975457;0.243813809;8.6144249678
1441927248281180000;-0.0020614321;0.0128863113;-0.4230882661;0.9059944882;-0.0010592365;0.0037630255;-0.0002245922;0.3930473283;0.2587218788;8.6113051534
1441927248301200000;-0.0020444687;0.0128399371;-0.4230970074;0.9059911029;-6.78894559139e-05;0.0021826327;-0.0001322941;0.481105382;0.2588939585;8.6128168702
1441927248321340000;-0.0020439493;0.0128204337;-0.423097314;0.9059912371;-5.89503925876e-05;0.0004457598;0.0001993;0.4846954539;0.2470254771;8.612615931
1441927248341080000;-0.002023924;0.0128014509;-0.4230977465;0.9059913485;0.0003124819;0.0017021415;0.0004467744;0.3908522576;0.2588226222;8.6123145223
1441927248361050000;-0.0020160178;0.0127977587;-0.4230978582;0.9059913661;-0.0031302774;0.0031528688;-0.0003011007;0.3936679251;0.2572440047;8.6123863697
1441927248381300000;-0.0020043063;0.0128019901;-0.4231057749;0.9059876352;0.0008789783;0.002414124;-0.0010058246;0.3960766763;0.2392213777;8.6126211882
1441927248401110000;-0.0020163131;0.0128172982;-0.4231133562;0.9059838515;-0.000413092;0.0015676106;-0.0011219755;0.3964371547;0.2149652187;8.6129173398
1441927248421260000;-0.002032014;0.0128247008;-0.4231210343;0.9059801258;-0.0004826811;0.0020225621;-0.0007478744;0.3958554387;0.1661808625;8.6135154843
1441927248441150000;-0.0020598333;0.0128473935;-0.4231283907;0.9059763057;0.0004985598;0.0028836448;-0.0004275155;0.395405224;0.173518483;8.6134150147
1441927248461120000;-0.002068033;0.0128706255;-0.4231438047;0.9059687582;-0.001589213;0.0025713338;-0.0018430515;0.3970543563;0.2017357979;8.6130803108
1441927248481390000;-0.0020637085;0.012859046;-0.4231519164;0.9059651438;0.000660174;0.0006655171;-0.0011459263;0.3980102777;0.2533406224;8.6124149919
1441927248501370000;-0.0020398782;0.0128479856;-0.4231601546;0.9059615068;-0.0007014664;0.0017249072;-0.0007688724;0.3954230033;0.2325897276;8.6126977086
1441927248521220000;-0.002067584;0.0128706976;-0.4231754114;0.9059539952;-0.0008068321;0.0036107585;-0.0002460764;0.3958693117;0.1717544604;8.613444221
1441927248541470000;-0.0020797018;0.0128859893;-0.4231750888;0.9059539008;-0.00163427;0.0024636505;-0.0001774197;0.3971106149;0.184996805;8.6133005261
1441927248561280000;-0.0021033069;0.0128970862;-0.4231826529;0.9059501551;-0.0011904408;0.0015810811;-0.0013663914;0.3976168692;0.1786869716;8.6133770466
1441927248581280000;-0.0021033069;0.0128970862;-0.4231826529;0.9059501551;-0.0006482696;0.0012329356;-0.0014116946;0.397576528;0.1831721611;8.6133244753
1441927248600990000;-0.0021147951;0.0128928921;-0.42319054;0.9059465038;0.0005255936;4.00324359635e-05;-0.0013947007;0.3971734449;0.1797918085;8.6133577704
1441927248621180000;-0.0021340754;0.0128924106;-0.4232062464;0.9059391285;-0.0009106513;-0.0001635849;-4.57387957708e-05;0.3978394575;0.169723456;8.6294597745
1441927248641110000;-0.0021697976;0.0129188;-0.4232134863;0.9059352855;-0.0008530054;0.0015590731;-0.0003149447;0.3946401656;0.1823914774;8.6087542772
1441927248661180000;-0.0021775906;0.0129225122;-0.423221275;0.9059315753;0.0001631656;0.0025371629;-0.0016256706;0.3963310994;0.1812993817;8.6086251855
1441927248681090000;-0.0022091008;0.0129373047;-0.423228725;0.9059278075;0.0008885677;0.0010490259;-0.0003272821;0.3968316585;0.1788376577;8.5768423319
1441927248701250000;-0.0022170064;0.0129409981;-0.4232286121;0.9059277881;-0.0005787371;0.0012364266;1.78964110965e-05;0.3956154726;0.1799394097;8.6204975367
1441927248721220000;-0.0022204752;0.0129331323;-0.4232445138;0.9059204629;0.0003083232;0.0023865159;-0.0006991597;0.3964672007;0.2636275657;8.6161329508
1441927248741290000;-0.0022046641;0.0129257453;-0.4232447395;0.9059205015;-0.0010749558;0.0014632038;-0.0007063271;0.3968905456;0.2499225754;8.6142433047
1441927248761090000;-0.0021850448;0.0129262818;-0.4232527977;0.9059167765;4.97105086064e-05;0.0024601733;0.0001708057;0.3978292353;0.2399805583;8.6119652152
1441927248781170000;-0.0022045509;0.0129257646;-0.4232526709;0.9059167959;-0.0005548073;0.0013235379;-0.0002392768;0.3965947226;0.1807095062;8.6130610347
1441927248801080000;-0.0022124565;0.0129294582;-0.4232525581;0.9059167766;0.000582963;0.0006559696;0.0004554044;0.3948615491;0.1877218783;8.6321111202
1441927248821260000;-0.0022044382;0.0129257839;-0.4232605722;0.9059131043;-0.0014767805;0.001610789;-0.002446471;0.3961121984;0.2614031974;8.618027854
1441927248841070000;-0.0022242347;0.0129448081;-0.423275937;0.9059056054;-0.0013298618;0.00133574;-0.0003717416;0.3972894304;0.1811837249;8.6095773101
1441927248861170000;-0.0022398196;0.0129522346;-0.4232915133;0.9058981828;-5.13816486793e-05;0.0030506323;-0.0016199075;0.3964386515;0.1882378072;8.6159705639
1441927248881270000;-0.002247612;0.0129559481;-0.4232993014;0.9058944713;-0.0011186543;0.0010984801;-0.0004243487;0.3961123809;0.2115833327;8.6476050496
1441927248901250000;-0.002235383;0.0129406755;-0.4233075578;0.9058908618;3.48138861859e-05;0.0010577962;-0.0016763905;0.3973315604;0.2768410873;8.6961172581
1441927248921100000;-0.0022194591;0.0129333067;-0.4233156847;0.9058872086;-0.0009049217;0.0016520457;4.9674183538e-05;0.3968571775;0.2520601645;8.6618600488
1441927248941340000;-0.0022073442;0.0129180134;-0.4233160092;0.9058873048;0.0004458187;0.0009372817;0.0001101249;0.3964189373;0.1887174472;8.6063809753
1441927248961050000;-0.0022546634;0.0129401977;-0.4233232332;0.9058834958;-0.0022832481;0.0030117938;-0.000680182;0.3959254973;0.1810523149;8.6116877556
1441927248981090000;-0.0022509677;0.0129481028;-0.4233231339;0.9058834384;-9.68044663384e-05;0.0021136924;-0.0001397539;0.3962230727;0.1827831518;8.6148700714
1441927249001290000;-0.0022662638;0.0129359877;-0.4233232196;0.9058835334;-1.49911502937e-05;0.0001868247;-0.0011933406;0.3972814716;0.1827139512;8.6276367188
1441927249021220000;-0.0022540363;0.012920714;-0.4233314454;0.9058799379;0.0006435903;-0.0003432841;-1.05181238819e-05;0.395963867;0.2276229266;8.5926908255
1441927249041420000;-0.0022619415;0.0129244082;-0.4233313326;0.9058799181;-0.0009992405;0.0026880447;-0.0002369219;0.3962257013;0.2295679916;8.6172912717
1441927249061270000;-0.002258133;0.012932333;-0.4233391344;0.9058761686;-0.0008166548;0.0022243634;-0.0005391824;0.3960367732;0.2098458514;8.606854701
1441927249081060000;-0.0022464197;0.0129365624;-0.423347049;0.9058724386;-0.0016241673;0.0032644584;1.30431722788e-05;0.3974282332;0.2473664969;8.6473848343
1441927249101100000;-0.0022306094;0.0129291737;-0.4233472747;0.9058724777;0.0002210883;0.002045305;0.0002014464;0.397513698;0.2241977058;8.5995718241
1441927249121060000;-0.002250516;0.0129481814;-0.4233547376;0.9058686692;-0.0012976237;0.0012697895;-4.33160449675e-05;0.3957499675;0.1910587501;8.6095294118
1441927249141380000;-0.0022663267;0.0129555704;-0.4233545116;0.9058686298;-0.001253611;0.0017607626;-0.0010008326;0.395993913;0.2136343252;8.6155640125
1441927249161060000;-0.0022542119;0.0129402764;-0.4233548369;0.9058687266;-0.0007031853;0.000624557;0.0008040685;0.3967638269;0.2626718633;8.6115060926
1441927249181290000;-0.0022382885;0.0129329071;-0.4233629937;0.9058650592;-0.0007240498;0.0017268626;-0.000800653;0.3966896065;0.2474308237;8.6127263308
1441927249201170000;-0.0022655864;0.0129361064;-0.4233706551;0.905861365;-0.0005325595;0.0012230292;-0.0005093338;0.3960852556;0.1655589513;8.613462913
1441927249221310000;-0.0022655864;0.0129361064;-0.4233706551;0.905861365;-0.0006981431;0.00037499;0.0003763572;0.3962622821;0.1760711297;8.6135108113
1441927249241340000;-0.002285093;0.0129355908;-0.4233705287;0.9058613825;-0.0017780813;-0.0001310692;-5.16803115302e-05;0.3962456346;0.182118782;8.6134202719
1441927249261480000;-0.0023282019;0.0129461792;-0.4233779644;0.9058576462;-0.0002751118;0.0017564199;-0.0004236703;0.3958318181;0.1787398349;8.6133530974
1441927249281140000;-0.0023518043;0.0129572838;-0.423385526;0.9058538923;-0.0003535182;0.000823461;-0.0003178893;0.3976871833;0.1973939016;8.6131282091
1441927249301350000;-0.0023597093;0.0129609785;-0.423385413;0.9058538717;-0.0001079927;0.0017470233;0.000158392;0.3955072634;0.1883590862;8.6132333517
1441927249321410000;-0.0023597093;0.0129609785;-0.423385413;0.9058538717;-8.37491823171e-05;0.0019569885;-0.0001457346;0.3951191485;0.1859135535;8.6133005261
1441927249341430000;-0.0024065136;0.0129636644;-0.4233929483;0.9058501882;-0.00139464;-0.0007291394;-0.0008227995;0.4115772866;0.176156266;8.61345824
1441927249361370000;-0.0024375079;0.0129589615;-0.4234007104;0.9058465446;-0.0016703744;0.0015766067;-0.0002703245;0.4009701878;0.1825788356;8.6133431673
1441927249381330000;-0.0024495082;0.0129742773;-0.4234082842;0.9058427529;0.0002548958;0.0023206604;-0.0020402945;0.3941251129;0.179520829;8.6133431673
1441927249401250000;-0.0024729964;0.0129854054;-0.4234237758;0.9058352884;-0.0005003811;0.0021774806;-4.26210451027e-05;0.3984098196;0.1785937671;8.6133577704
1441927249421410000;-0.0024965975;0.0129965123;-0.4234313362;0.9058315302;-0.0007643768;0.0016535562;-0.0017321382;0.3960533477;0.1800272658;8.6133338213
1441927249441610000;-0.0024885794;0.0129928389;-0.4234393501;0.9058278588;-0.0005864267;0.0013158875;-0.0007516658;0.3963305883;0.2305778898;8.6127216578
1441927249461250000;-0.002492561;0.0130044812;-0.4234549367;0.9058203946;-8.47905199071e-05;0.0021319603;-0.0014285706;0.3965239339;0.2078087866;8.6129938602
1441927249481310000;-0.0025082574;0.0130118939;-0.4234626101;0.9058166576;-0.0005446012;0.0015452788;0.0001614648;0.3962994471;0.1733217604;8.6134342909
1441927249501290000;-0.0025082574;0.0130118939;-0.4234626101;0.9058166576;-0.0014281598;0.0022471855;-0.0013018661;0.3967956252;0.2382892411;8.612615931
1441927249521320000;-0.0025202557;0.0130272112;-0.4234702121;0.9058128502;0.0002848486;0.0010043974;0.0005390265;0.3961143158;0.1860749912;8.613271904
1441927249541280000;-0.0025001249;0.013008242;-0.4234785545;0.9058092784;-0.0001493993;0.0009854278;-0.0012113089;0.3969832025;0.2643699527;8.6122812271
1441927249561150000;-0.0024959169;0.012996643;-0.423478769;0.9058093562;-0.0004149602;0.0012556478;-0.0006442559;0.3956684455;0.1867801037;8.6132573009
1441927249581010000;-0.002523612;0.0130193727;-0.4234940144;0.9058018255;-0.0015824891;0.0014440059;-0.0011621849;0.3961531237;0.187620423;8.6132573009
1441927249601300000;-0.0025430047;0.013018883;-0.4235017888;0.9057981435;-0.0003517185;0.0020314381;-0.0007283017;0.3972145163;0.1986578945;8.6131328821
1441927249621300000;-0.0025307791;0.0130036091;-0.4235100175;0.9057945498;-0.0002559245;9.94973815359e-05;-0.0013089982;0.3965745337;0.2395455491;8.63139323
1441927249641410000;-0.002506952;0.0129925434;-0.423518258;0.9057909219;-0.0001243885;0.0015713666;-0.0003685495;0.3964328103;0.257131378;8.6055485964
1441927249661340000;-0.0024989338;0.0129888694;-0.4235263017;0.9057872357;-0.0010685499;0.0018726029;-0.0007098445;0.3971918084;0.2236661334;8.6211815476
1441927249681440000;-0.0025109322;0.0130041876;-0.4235338739;0.9057834421;-0.0003896525;0.0017246511;-0.0010334272;0.3967890173;0.1771781024;8.6117975712
1441927249701320000;-0.0025339093;0.0129958154;-0.4235496495;0.9057761216;0.0003879628;0.0002306094;-0.0014203853;0.3963100709;0.173722069;8.6139751911
1441927249721350000;-0.0025496049;0.0130032301;-0.4235573227;0.9057723831;-0.000601515;0.0021835663;-0.001077428;0.3947564796;0.1812266398;8.6131521583
1441927249741480000;-0.0025653;0.0130106448;-0.4235649957;0.9057686442;0.0006944913;0.0011659623;-0.0010814867;0.3968510441;0.1799303923;8.6132958531
1441927249761100000;-0.0025766742;0.013006483;-0.4235808137;0.9057612745;0.0011063926;0.0013948748;-0.0006416263;0.3965231672;0.1798146989;8.613453567
1441927249781560000;-0.0025845784;0.0130101794;-0.4235807002;0.905761252;-0.000209596;0.0004309029;5.82903158281e-05;0.3957158692;0.194044891;8.61310426
1441927249801350000;-0.0025960675;0.0130059946;-0.4235885882;0.9057575903;-0.0011935566;0.0011267154;-0.0018401121;0.3966113336;0.1971368317;8.6667363286
1441927249821440000;-0.0025954453;0.0129865136;-0.4235968047;0.9057540291;0.0003043342;0.0002038311;0.0003272814;0.3968966424;0.2353069518;8.6815176249
1441927249841480000;-0.0025601308;0.0129796314;-0.4235971565;0.9057540637;-0.0007811784;0.0020119585;-0.0003379847;0.3967077874;0.2669443216;8.5904273391
1441927249861430000;-0.002552113;0.0129759569;-0.4236051696;0.9057503914;-0.000627731;0.0014431864;-0.0001619778;0.3980365269;0.2462635949;8.6137596488
1441927249881100000;-0.002552113;0.0129759569;-0.4236051696;0.9057503914;-0.0009943626;0.0009435951;-0.0006588937;0.3965694226;0.1988963272;8.6128314734
1441927249901290000;-0.002547794;0.0129643785;-0.4236132837;0.9057467745;-0.0006449262;0.0015519839;-0.0011060443;0.3956879042;0.1999341723;8.6133770466
1441927249921400000;-0.0025636026;0.0129717721;-0.4236130574;0.9057467299;-0.000467529;0.0013332949;0.0002140685;0.3959493004;0.1916245852;8.6132426977
1441927249941610000;-0.0025875959;0.0130024108;-0.4236282008;0.9057391397;-0.000647615;0.0034382967;-0.0020564003;0.3969119027;0.1922288813;8.6129991174
1441927249961510000;-0.0025873687;0.013002456;-0.4236440303;0.9057317358;-0.0004487311;0.0012602936;-0.0015540625;0.3974555776;0.1976860374;8.6130230665
1441927249981470000;-0.0025713342;0.012995107;-0.4236600565;0.9057243907;-0.0003921999;0.0015291171;-0.0012249928;0.3968764536;0.2670620959;8.6121901035
1441927250001060000;-0.0025396051;0.0129803405;-0.4236684094;0.9057207848;0.0015892393;0.0004730374;-0.0004523168;0.396157176;0.2545114107;8.612424922
1441927250021450000;-0.0025273827;0.0129650655;-0.4236766365;0.9057171894;0.0003132518;0.0008914918;-0.0007348722;0.3965217799;0.2606240105;8.6123484016
1441927250041430000;-0.0024878633;0.0129465791;-0.4236772018;0.9057172988;0.0001672498;0.0015547602;0.000218355;0.39703435;0.2565674961;8.6123910427
1441927250061410000;-0.0024720553;0.0129391844;-0.4236774277;0.9057173421;-0.0005841985;0.0009133257;-0.0007729905;0.3973165192;0.2573784996;8.6123530746
1441927250081350000;-0.0024598337;0.0129239078;-0.4236856533;0.9057137456;-0.0010831018;0.002683824;-0.0007659639;0.3967162207;0.22424962;8.6128028512
1441927250101470000;-0.0024639254;0.0129355303;-0.4236933697;0.9057099589;0.0002615282;0.0008001323;-0.0005938022;0.397457549;0.2277792532;8.6280578733
1441927250121350000;-0.0024596079;0.0129239508;-0.4237014824;0.9057063407;-0.000504474;0.0016702758;-9.61124916155e-07;0.397485368;0.2485152893;8.6693678141
1441927250141410000;-0.0024321974;0.0129207617;-0.4237017205;0.9057063489;0.0005043481;0.00201042;-0.0008230876;0.3959482051;0.2560928211;8.5987487912
1441927250161320000;-0.0024083732;0.0129096902;-0.423709958;0.9057027167;0.0004281657;0.0010199249;-0.0005166315;0.3973926015;0.2248443693;8.6079890728
1441927250181330000;-0.0024277675;0.0129092031;-0.4237177321;0.9056990349;-8.90365339441e-05;0.0016090735;-0.0014814939;0.3956693947;0.1741549607;8.6146930814
1441927250201390000;-0.002431972;0.0129208042;-0.4237175193;0.9056989578;0.0001041256;0.002614174;0.0004163962;0.39566589;0.1759842958;8.6132333517
1441927250221370000;-0.0024438554;0.0129361447;-0.4237329921;0.905691468;7.17552616087e-05;0.0019275882;-0.0016349159;0.3977380753;0.2143949479;8.613099587
1441927250241410000;-0.0024242357;0.0129366736;-0.4237410169;0.9056877586;0.0002334632;0.0022461511;-0.0009149113;0.3969910882;0.2312968388;8.612615931
1441927250261210000;-0.0024399299;0.0129440908;-0.4237487205;0.9056840062;-0.0020474159;0.0001346176;-0.0002919813;0.3959373988;0.1664887331;8.6135207415
1441927250281290000;-0.002470813;0.0129394217;-0.423764381;0.9056766619;0.0006053738;0.0010404196;-0.0011181585;0.3952090308;0.1851230856;8.6133005261
1441927250301330000;-0.0024866203;0.0129468179;-0.4237641551;0.9056766186;-0.0001065247;0.002961277;-0.0008790466;0.4286621548;0.181003157;8.613448894
1441927250321110000;-0.00250181;0.0129347312;-0.4237721426;0.9056730121;0.0004255994;0.0012783571;-4.50499360982e-05;0.3963708565;0.1782528203;8.6133577704
1441927250341120000;-0.0024979975;0.0129426562;-0.4237799411;0.9056692604;-0.0010286551;0.0021647224;-0.0003648684;0.4034734577;0.2472132735;8.6125201345
1441927250361390000;-0.0024823031;0.0129352381;-0.4237722678;0.905673;-0.0011134604;0.001557283;0.000312199;0.3966771208;0.2501762867;8.6124582171
1441927250381300000;-0.0024547806;0.0129320685;-0.423780405;0.9056693127;2.66067228009e-05;0.001793182;-0.0005036319;0.397073523;0.2598622378;8.6276892901
1441927250401530000;-0.0024351613;0.0129325956;-0.4237884295;0.9056656033;-0.0009670173;0.0024889269;-0.0005301014;0.3967078969;0.2576620925;8.6344172478
1441927250421310000;-0.0024151506;0.0129135987;-0.423788868;0.9056657227;0.0002552906;0.0015547146;-0.0008892034;0.3976966389;0.257803889;8.6854557991
1441927250441750000;-0.0023875153;0.0129104478;-0.4238049344;0.9056583228;-0.0004776153;0.0014803657;-0.0009328015;0.3964057215;0.257399236;8.6157649517
1441927250461290000;-0.0023837027;0.0129183717;-0.4238127335;0.9056545702;-9.18175818279e-05;0.0019771834;-0.0013584928;0.3962162822;0.1728755981;8.607687664
1441927250481490000;-0.0024190161;0.0129252625;-0.4238123825;0.9056545425;-0.0013282364;0.0018176176;0.0002586348;0.3967399143;0.181937119;8.624789691
1441927250501340000;-0.0024268065;0.0129289821;-0.4238201686;0.9056508249;-0.000155541;0.0011161212;-0.0003876679;0.3955573887;0.1815100685;8.6107257009
1441927250521080000;-0.0024504037;0.0129400992;-0.423827729;0.9056470645;-0.001038624;0.0019539302;-0.0012587853;0.3962292425;0.1790089525;8.6137403727
1441927250541350000;-0.002462284;0.0129554422;-0.4238432003;0.9056395725;0.0009473798;0.0017769136;-0.0011653127;0.3962273806;0.1800963569;8.6133671165
1441927250561290000;-0.0024780907;0.0129628398;-0.4238429741;0.9056395294;7.20703985425e-05;0.0018928344;8.87798405871e-05;0.3962769218;0.1792089242;8.5944227576
1441927250581100000;-0.0024974841;0.012962356;-0.4238507475;0.905635845;0.0004135697;0.001078512;-0.001244734;0.3962295711;0.1796425097;8.6202913404
1441927250601050000;-0.0025052736;0.0129660767;-0.4238585633;0.9056321123;-0.0005395025;0.0006969897;-0.000933202;0.3957086772;0.1950179894;8.6047302365
1441927250621290000;-0.0025051605;0.0129660986;-0.4238664621;0.9056284154;0.0006987338;0.0018721647;-7.86157296708e-05;0.3959900431;0.1855921384;8.6148986936
1441927250641100000;-0.0025171534;0.0129814214;-0.4238740334;0.9056246189;-0.0006312843;0.0031777387;-0.0011051691;0.3968607187;0.19246401;8.6126544833
