%time,field.header.seq,field.header.stamp,field.header.frame_id,field.orientation.x,field.orientation.y,field.orientation.z,field.orientation.w,field.orientation_covariance0,field.orientation_covariance1,field.orientation_covariance2,field.orientation_covariance3,field.orientation_covariance4,field.orientation_covariance5,field.orientation_covariance6,field.orientation_covariance7,field.orientation_covariance8,field.angular_velocity.x,field.angular_velocity.y,field.angular_velocity.z,field.angular_velocity_covariance0,field.angular_velocity_covariance1,field.angular_velocity_covariance2,field.angular_velocity_covariance3,field.angular_velocity_covariance4,field.angular_velocity_covariance5,field.angular_velocity_covariance6,field.angular_velocity_covariance7,field.angular_velocity_covariance8,field.linear_acceleration.x,field.linear_acceleration.y,field.linear_acceleration.z,field.linear_acceleration_covariance0,field.linear_acceleration_covariance1,field.linear_acceleration_covariance2,field.linear_acceleration_covariance3,field.linear_acceleration_covariance4,field.linear_acceleration_covariance5,field.linear_acceleration_covariance6,field.linear_acceleration_covariance7,field.linear_acceleration_covariance8
1441927234767848016,0,1441927234758719324,ardrone_base_link,-0.0028570222539,0.0139538796668,-0.418648604157,0.908036603284,0.0,0.0,0.0,0.0,0.0,0.0,0.0,0.0,0.0,-0.00122971566412,0.00290814978152,-0.00201500813243,0.0,0.0,0.0,0.0,0.0,0.0,0.0,0.0,0.0,0.39645562768,0.166520421952,8.61326664686,0.0,0.0,0.0,0.0,0.0,0.0,0.0,0.0,0.0
1441927234780775132,1,1441927234778730898,ardrone_base_link,-0.00287628200612,0.0139533127664,-0.418664308961,0.908029310357,0.0,0.0,0.0,0.0,0.0,0.0,0.0,0.0,0.0,-0.000582508292312,0.000783143084066,-0.0010747229408,0.0,0.0,0.0,0.0,0.0,0.0,0.0,0.0,0.0,0.397069470584,0.199180431291,8.61288871765,0.0,0.0,0.0,0.0,0.0,0.0,0.0,0.0,0.0
1441927234800849975,2,1441927234798732383,ardrone_base_link,-0.00286031199217,0.0139460308229,-0.418672502344,0.908025694912,0.0,0.0,0.0,0.0,0.0,0.0,0.0,0.0,0.0,-0.00187830773663,0.00261437476746,-0.000400421676195,0.0,0.0,0.0,0.0,0.0,0.0,0.0,0.0,0.0,0.396472932398,0.270437465236,8.69775339365,0.0,0.0,0.0,0.0,0.0,0.0,0.0,0.0,0.0
1441927234820829665,3,1441927234820307566,ardrone_base_link,-0.00284019505593,0.0139271462155,-0.418672975865,0.908025829573,0.0,0.0,0.0,0.0,0.0,0.0,0.0,0.0,0.0,-0.0012880149647,0.00200134837879,-0.000846011565415,0.0,0.0,0.0,0.0,0.0,0.0,0.0,0.0,0.0,0.396498195827,0.25374135077,8.60432835817,0.0,0.0,0.0,0.0,0.0,0.0,0.0,0.0,0.0
1441927234840836084,4,1441927234839883191,ardrone_base_link,-0.00283641820265,0.0139350946487,-0.418680786969,0.908022117843,0.0,0.0,0.0,0.0,0.0,0.0,0.0,0.0,0.0,0.000239146987643,0.00246711678456,-0.00193734135707,0.0,0.0,0.0,0.0,0.0,0.0,0.0,0.0,0.0,0.396563252807,0.17358155027,8.61359726191,0.0,0.0,0.0,0.0,0.0,0.0,0.0,0.0,0.0
1441927234860826076,5,1441927234858763762,ardrone_base_link,-0.0028404434312,0.0139467214941,-0.418696395914,0.908014729445,0.0,0.0,0.0,0.0,0.0,0.0,0.0,0.0,0.0,0.000221676771312,0.0035394453511,-0.000150837011957,0.0,0.0,0.0,0.0,0.0,0.0,0.0,0.0,0.0,0.396955602616,0.179998442903,8.61495593786,0.0,0.0,0.0,0.0,0.0,0.0,0.0,0.0,0.0
1441927234880788326,6,1441927234878857972,ardrone_base_link,-0.00285982544901,0.0139461306034,-0.418704180788,0.908011087944,0.0,0.0,0.0,0.0,0.0,0.0,0.0,0.0,0.0,-0.00093155235098,0.00137412453281,-0.000706239626848,0.0,0.0,0.0,0.0,0.0,0.0,0.0,0.0,0.0,0.396710634977,0.181204808131,8.62976585627,0.0,0.0,0.0,0.0,0.0,0.0,0.0,0.0,0.0
1441927234900765748,7,1441927234898829120,ardrone_base_link,-0.00287932863701,0.0139455147199,-0.418704046224,0.908011097819,0.0,0.0,0.0,0.0,0.0,0.0,0.0,0.0,0.0,-0.0011296770354,0.00195858344756,0.000605436964793,0.0,0.0,0.0,0.0,0.0,0.0,0.0,0.0,0.0,0.39508972317,0.180065380037,8.61913827658,0.0,0.0,0.0,0.0,0.0,0.0,0.0,0.0,0.0
1441927234920814348,8,1441927234919317332,ardrone_base_link,-0.00289152111151,0.0139607461731,-0.41870369372,0.908010987564,0.0,0.0,0.0,0.0,0.0,0.0,0.0,0.0,0.0,-0.000855275802918,0.00252872345031,-5.3239753745e-05,0.0,0.0,0.0,0.0,0.0,0.0,0.0,0.0,0.0,0.395455860347,0.180200696364,8.61129055023,0.0,0.0,0.0,0.0,0.0,0.0,0.0,0.0,0.0
1441927234940813786,9,1441927234939228256,ardrone_base_link,-0.00291090254141,0.013960155674,-0.418711478707,0.908007344848,0.0,0.0,0.0,0.0,0.0,0.0,0.0,0.0,0.0,-0.00109434983971,0.00189481582426,-0.00104034391108,0.0,0.0,0.0,0.0,0.0,0.0,0.0,0.0,0.0,0.397085241973,0.180450939387,8.61247749329,0.0,0.0,0.0,0.0,0.0,0.0,0.0,0.0,0.0
1441927234961261419,10,1441927234958640791,ardrone_base_link,-0.00290297877598,0.0139565017697,-0.418711600515,0.908007370216,0.0,0.0,0.0,0.0,0.0,0.0,0.0,0.0,0.0,-0.000942773647766,0.0020299959556,-6.98361569232e-05,0.0,0.0,0.0,0.0,0.0,0.0,0.0,0.0,0.0,0.397027413547,0.26352485083,8.6132193327,0.0,0.0,0.0,0.0,0.0,0.0,0.0,0.0,0.0
1441927234981311795,11,1441927234979191290,ardrone_base_link,-0.00289542325411,0.0139723994278,-0.418727251454,0.907999932527,0.0,0.0,0.0,0.0,0.0,0.0,0.0,0.0,0.0,-0.00100589602667,0.00355649686403,-0.0017197285884,0.0,0.0,0.0,0.0,0.0,0.0,0.0,0.0,0.0,0.395969452709,0.17187438868,8.61308965683,0.0,0.0,0.0,0.0,0.0,0.0,0.0,0.0,0.0
1441927235001231254,12,1441927234999646203,ardrone_base_link,-0.002907002757,0.0139681300078,-0.418727238719,0.907999967089,0.0,0.0,0.0,0.0,0.0,0.0,0.0,0.0,0.0,0.00110913051369,0.00194522967137,0.000489130167017,0.0,0.0,0.0,0.0,0.0,0.0,0.0,0.0,0.0,0.397366279364,0.179877364635,8.61345824003,0.0,0.0,0.0,0.0,0.0,0.0,0.0,0.0,0.0
1441927235021400218,13,1441927235019479832,ardrone_base_link,-0.00291480459775,0.0139718094716,-0.418735036244,0.907996289572,0.0,0.0,0.0,0.0,0.0,0.0,0.0,0.0,0.0,-0.000545559923328,0.00255657975099,-0.00152229628685,0.0,0.0,0.0,0.0,0.0,0.0,0.0,0.0,0.0,0.395447682589,0.180736704543,8.61331454515,0.0,0.0,0.0,0.0,0.0,0.0,0.0,0.0,0.0
1441927235041234115,14,1441927235039056738,ardrone_base_link,-0.0029226068466,0.0139754892894,-0.418742833697,0.907992611917,0.0,0.0,0.0,0.0,0.0,0.0,0.0,0.0,0.0,-0.00129079880025,0.00263522388565,-7.71842887233e-05,0.0,0.0,0.0,0.0,0.0,0.0,0.0,0.0,0.0,0.396230958402,0.213895721361,8.61290799379,0.0,0.0,0.0,0.0,0.0,0.0,0.0,0.0,0.0
1441927235061185668,15,1441927235059165890,ardrone_base_link,-0.00293833216353,0.0139828232704,-0.418750509088,0.90798890852,0.0,0.0,0.0,0.0,0.0,0.0,0.0,0.0,0.0,-0.000884165313868,0.00145751983525,-0.000755840221543,0.0,0.0,0.0,0.0,0.0,0.0,0.0,0.0,0.0,0.396051668376,0.167671057954,8.59703087807,0.0,0.0,0.0,0.0,0.0,0.0,0.0,0.0,0.0
1441927235081137511,16,1441927235080222713,ardrone_base_link,-0.00295052335914,0.0139980551166,-0.418750155352,0.90798879743,0.0,0.0,0.0,0.0,0.0,0.0,0.0,0.0,0.0,-0.00047209659922,0.0038817884648,-4.97065506003e-05,0.0,0.0,0.0,0.0,0.0,0.0,0.0,0.0,0.0,0.39644292295,0.176557487249,8.60710353851,0.0,0.0,0.0,0.0,0.0,0.0,0.0,0.0,0.0
1441927235101125496,17,1441927235099396753,ardrone_base_link,-0.00295454747644,0.0140096835286,-0.418765762098,0.90798140725,0.0,0.0,0.0,0.0,0.0,0.0,0.0,0.0,0.0,-0.000331096232097,0.00253252677721,-0.00110465983607,0.0,0.0,0.0,0.0,0.0,0.0,0.0,0.0,0.0,0.396516997367,0.181866293773,8.61566915512,0.0,0.0,0.0,0.0,0.0,0.0,0.0,0.0,0.0
1441927235121095068,18,1441927235119314873,ardrone_base_link,-0.00297405027093,0.0140090699342,-0.418765627378,0.90798141518,0.0,0.0,0.0,0.0,0.0,0.0,0.0,0.0,0.0,-0.00117914109108,0.001068606968,-0.000138133762914,0.0,0.0,0.0,0.0,0.0,0.0,0.0,0.0,0.0,0.396279221773,0.178770793602,8.61415218115,0.0,0.0,0.0,0.0,0.0,0.0,0.0,0.0,0.0
1441927235141432076,19,1441927235139161585,ardrone_base_link,-0.00297392808564,0.0140090958729,-0.41877354665,0.907977762729,0.0,0.0,0.0,0.0,0.0,0.0,0.0,0.0,0.0,-0.000723108632617,0.00333233516383,-0.000731051562522,0.0,0.0,0.0,0.0,0.0,0.0,0.0,0.0,0.0,0.396091133356,0.248489587754,8.611596632,0.0,0.0,0.0,0.0,0.0,0.0,0.0,0.0,0.0
1441927235161281605,20,1441927235159196852,ardrone_base_link,-0.00297380543377,0.0140091219096,-0.418781496117,0.907974096268,0.0,0.0,0.0,0.0,0.0,0.0,0.0,0.0,0.0,-0.00248689465661,0.0020172433412,-0.000794676600076,0.0,0.0,0.0,0.0,0.0,0.0,0.0,0.0,0.0,0.396092995256,0.184520906955,8.61365450621,0.0,0.0,0.0,0.0,0.0,0.0,0.0,0.0,0.0
1441927235181328165,21,1441927235179319453,ardrone_base_link,-0.00299684332865,0.0140006108383,-0.418789390674,0.907970510581,0.0,0.0,0.0,0.0,0.0,0.0,0.0,0.0,0.0,-0.000123261242069,0.000766701510447,-0.00140073455733,0.0,0.0,0.0,0.0,0.0,0.0,0.0,0.0,0.0,0.396460045129,0.176110065356,8.61329059601,0.0,0.0,0.0,0.0,0.0,0.0,0.0,0.0,0.0
1441927235201350761,22,1441927235197891864,ardrone_base_link,-0.00300464462904,0.0140042916281,-0.418797187659,0.907966831738,0.0,0.0,0.0,0.0,0.0,0.0,0.0,0.0,0.0,-0.000417756865189,0.00308410826636,-0.000892406809096,0.0,0.0,0.0,0.0,0.0,0.0,0.0,0.0,0.0,0.395738504082,0.181562092155,8.61321407557,0.0,0.0,0.0,0.0,0.0,0.0,0.0,0.0,0.0
1441927235221231849,23,1441927235219128667,ardrone_base_link,-0.00300891160959,0.0140158694418,-0.41879695535,0.907966746112,0.0,0.0,0.0,0.0,0.0,0.0,0.0,0.0,0.0,-0.00157512115297,0.00211476770139,-0.000470904255976,0.0,0.0,0.0,0.0,0.0,0.0,0.0,0.0,0.0,0.397393842787,0.177207837999,8.66699451208,0.0,0.0,0.0,0.0,0.0,0.0,0.0,0.0,0.0
1441927235241684571,24,1441927235239357506,ardrone_base_link,-0.00302829262412,0.0140152819915,-0.418804740033,0.907963100044,0.0,0.0,0.0,0.0,0.0,0.0,0.0,0.0,0.0,0.00015116447804,0.000117365267762,-0.000716986613086,0.0,0.0,0.0,0.0,0.0,0.0,0.0,0.0,0.0,0.396500824392,0.180421368033,8.59343266487,0.0,0.0,0.0,0.0,0.0,0.0,0.0,0.0,0.0
1441927235261045150,25,1441927235260116693,ardrone_base_link,-0.00304718554358,0.0139951684816,-0.418804948376,0.907963250983,0.0,0.0,0.0,0.0,0.0,0.0,0.0,0.0,0.0,-0.00105438161773,0.000704273139872,-0.000397928863808,0.0,0.0,0.0,0.0,0.0,0.0,0.0,0.0,0.0,0.39484577775,0.195640904456,8.61779829264,0.0,0.0,0.0,0.0,0.0,0.0,0.0,0.0,0.0
1441927235281210738,26,1441927235279152094,ardrone_base_link,-0.00303560519008,0.0139994366755,-0.41880496037,0.907963218442,0.0,0.0,0.0,0.0,0.0,0.0,0.0,0.0,0.0,-0.000968610081217,0.00214997825374,0.000517730832922,0.0,0.0,0.0,0.0,0.0,0.0,0.0,0.0,0.0,0.381103275716,0.252274958417,8.61349153519,0.0,0.0,0.0,0.0,0.0,0.0,0.0,0.0,0.0
1441927235301184090,27,1441927235299744780,ardrone_base_link,-0.00300440034159,0.0140043440382,-0.418813025917,0.907959526217,0.0,0.0,0.0,0.0,0.0,0.0,0.0,0.0,0.0,-0.000127079783319,0.0021332237457,-0.0011435367862,0.0,0.0,0.0,0.0,0.0,0.0,0.0,0.0,0.0,0.358360750228,0.248316960409,8.6120656848,0.0,0.0,0.0,0.0,0.0,0.0,0.0,0.0,0.0
1441927235321222537,28,1441927235319382013,ardrone_base_link,-0.00296904990863,0.0139976477554,-0.418813404768,0.907959571009,0.0,0.0,0.0,0.0,0.0,0.0,0.0,0.0,0.0,0.000483171799255,0.00215568623495,0.000966546131388,0.0,0.0,0.0,0.0,0.0,0.0,0.0,0.0,0.0,0.380557191372,0.260196029022,8.61191264391,0.0,0.0,0.0,0.0,0.0,0.0,0.0,0.0,0.0
1441927235341288359,29,1441927235339387898,ardrone_base_link,-0.00294527939007,0.0139866831529,-0.418813771085,0.907959648428,0.0,0.0,0.0,0.0,0.0,0.0,0.0,0.0,0.0,-0.00158243171215,0.00178661528306,-0.000829118567789,0.0,0.0,0.0,0.0,0.0,0.0,0.0,0.0,0.0,0.402547071129,0.24177778475,8.61248216629,0.0,0.0,0.0,0.0,0.0,0.0,0.0,0.0,0.0
1441927235361014446,30,1441927235360115011,ardrone_base_link,-0.00295308071715,0.0139903637058,-0.418821568096,0.907955969822,0.0,0.0,0.0,0.0,0.0,0.0,0.0,0.0,0.0,-3.31386682288e-05,0.00266491397039,-0.000264416442815,0.0,0.0,0.0,0.0,0.0,0.0,0.0,0.0,0.0,0.402459014207,0.167929989845,8.61360660791,0.0,0.0,0.0,0.0,0.0,0.0,0.0,0.0,0.0
1441927235381445360,31,1441927235374990619,ardrone_base_link,-0.00295308071715,0.0139903637058,-0.418821568096,0.907955969822,0.0,0.0,0.0,0.0,0.0,0.0,0.0,0.0,0.0,-0.00056433189292,0.00268171451159,5.63013974415e-05,0.0,0.0,0.0,0.0,0.0,0.0,0.0,0.0,0.0,0.398388791084,0.181598399207,8.62865601778,0.0,0.0,0.0,0.0,0.0,0.0,0.0,0.0,0.0
1441927235401196795,32,1441927235394747113,ardrone_base_link,-0.0029768511394,0.0140013285123,-0.418821201683,0.907955892198,0.0,0.0,0.0,0.0,0.0,0.0,0.0,0.0,0.0,-0.00219007573267,0.00198089756442,-0.000309359057618,0.0,0.0,0.0,0.0,0.0,0.0,0.0,0.0,0.0,0.396764411032,0.180587898567,8.61889411211,0.0,0.0,0.0,0.0,0.0,0.0,0.0,0.0,0.0
1441927235421339768,33,1441927235409352481,ardrone_base_link,-0.00299257606233,0.014008664552,-0.418828876295,0.90795218717,0.0,0.0,0.0,0.0,0.0,0.0,0.0,0.0,0.0,-0.000699260857478,0.00125047986804,-0.000831002351131,0.0,0.0,0.0,0.0,0.0,0.0,0.0,0.0,0.0,0.3969406344,0.179186307639,8.61966457367,0.0,0.0,0.0,0.0,0.0,0.0,0.0,0.0,0.0
1441927235441292689,34,1441927235439277942,ardrone_base_link,-0.0030154909279,0.0140001819841,-0.418844720094,0.907944933445,0.0,0.0,0.0,0.0,0.0,0.0,0.0,0.0,0.0,-0.0005625167692,0.00206185779097,-0.000553968841401,0.0,0.0,0.0,0.0,0.0,0.0,0.0,0.0,0.0,0.379760991782,0.179482313246,8.61850683689,0.0,0.0,0.0,0.0,0.0,0.0,0.0,0.0,0.0
1441927235461305167,35,1441927235459849665,ardrone_base_link,-0.00301646595593,0.0140392347206,-0.418859872616,0.907937337008,0.0,0.0,0.0,0.0,0.0,0.0,0.0,0.0,0.0,-0.0008141663748,0.00171706971856,-0.00189805491992,0.0,0.0,0.0,0.0,0.0,0.0,0.0,0.0,0.0,0.30732011795,0.179378338903,8.60520863533,0.0,0.0,0.0,0.0,0.0,0.0,0.0,0.0,0.0
1441927235481176950,36,1441927235479313754,ardrone_base_link,-0.00301390581356,0.0140861842222,-0.418866993807,0.907933333062,0.0,0.0,0.0,0.0,0.0,0.0,0.0,0.0,0.0,-0.000507190345696,0.00242642815669,-2.7636997073e-05,0.0,0.0,0.0,0.0,0.0,0.0,0.0,0.0,0.0,0.322960553318,0.18108767271,8.61448688507,0.0,0.0,0.0,0.0,0.0,0.0,0.0,0.0,0.0
1441927235501206436,37,1441927235499485440,ardrone_base_link,-0.0030180489163,0.014097788668,-0.41887467903,0.907929593638,0.0,0.0,0.0,0.0,0.0,0.0,0.0,0.0,0.0,-0.000590555381983,0.00214508781617,-0.000866574016685,0.0,0.0,0.0,0.0,0.0,0.0,0.0,0.0,0.0,0.403012874722,0.179731095955,8.6127502799,0.0,0.0,0.0,0.0,0.0,0.0,0.0,0.0,0.0
1441927235521187231,38,1441927235514541476,ardrone_base_link,-0.00302950620852,0.0140935475899,-0.418882585569,0.907925973588,0.0,0.0,0.0,0.0,0.0,0.0,0.0,0.0,0.0,-0.000651807761488,0.000775436886814,-0.00136689979815,0.0,0.0,0.0,0.0,0.0,0.0,0.0,0.0,0.0,0.388169113547,0.179005210474,8.61337237358,0.0,0.0,0.0,0.0,0.0,0.0,0.0,0.0,0.0
1441927235541306155,39,1441927235539324748,ardrone_base_link,-0.00302621131506,0.0141210233185,-0.418897997763,0.907918446897,0.0,0.0,0.0,0.0,0.0,0.0,0.0,0.0,0.0,-0.000838386511352,0.00104794744399,-0.000619142296458,0.0,0.0,0.0,0.0,0.0,0.0,0.0,0.0,0.0,0.372656455636,0.180004065111,8.61326197386,0.0,0.0,0.0,0.0,0.0,0.0,0.0,0.0,0.0
1441927235561286933,40,1441927235559557245,ardrone_base_link,-0.00304144901344,0.0141088345524,-0.418898096392,0.907918539966,0.0,0.0,0.0,0.0,0.0,0.0,0.0,0.0,0.0,-0.000673235740105,0.0017940904693,0.000109734475809,0.0,0.0,0.0,0.0,0.0,0.0,0.0,0.0,0.0,0.392973326892,0.194675381482,8.61308498383,0.0,0.0,0.0,0.0,0.0,0.0,0.0,0.0,0.0
1441927235581144574,41,1441927235579528200,ardrone_base_link,-0.00302547956834,0.014101549656,-0.418906261303,0.907914939304,0.0,0.0,0.0,0.0,0.0,0.0,0.0,0.0,0.0,-0.000463401306808,0.00248496152417,-0.00105835626859,0.0,0.0,0.0,0.0,0.0,0.0,0.0,0.0,0.0,0.398141377419,0.255046853051,8.61246289015,0.0,0.0,0.0,0.0,0.0,0.0,0.0,0.0,0.0
1441927235601601336,42,1441927235599597680,ardrone_base_link,-0.00302535657646,0.0141015760433,-0.418914179996,0.907911285627,0.0,0.0,0.0,0.0,0.0,0.0,0.0,0.0,0.0,-0.00119271580042,0.00233680238373,0.000282610771081,0.0,0.0,0.0,0.0,0.0,0.0,0.0,0.0,0.0,0.398094756901,0.198002396151,8.61311827898,0.0,0.0,0.0,0.0,0.0,0.0,0.0,0.0,0.0
1441927235621252823,43,1441927235614767165,ardrone_base_link,-0.00302169953907,0.0141094977672,-0.418914069215,0.907911225846,0.0,0.0,0.0,0.0,0.0,0.0,0.0,0.0,0.0,-0.00139072078563,0.00415711536682,-0.000839185784766,0.0,0.0,0.0,0.0,0.0,0.0,0.0,0.0,0.0,0.39703752622,0.216736488044,8.61288871765,0.0,0.0,0.0,0.0,0.0,0.0,0.0,0.0,0.0
1441927235641193015,44,1441927235639444623,ardrone_base_link,-0.00298561863336,0.0140833234892,-0.418922713557,0.907907763017,0.0,0.0,0.0,0.0,0.0,0.0,0.0,0.0,0.0,-7.05138049543e-05,0.00230561583134,-0.00131380562507,0.0,0.0,0.0,0.0,0.0,0.0,0.0,0.0,0.0,0.397659510374,0.268463285267,8.61223800182,0.0,0.0,0.0,0.0,0.0,0.0,0.0,0.0,0.0
1441927235661539896,45,1441927235659555977,ardrone_base_link,-0.00296160446865,0.0140724079065,-0.418938919339,0.907900533152,0.0,0.0,0.0,0.0,0.0,0.0,0.0,0.0,0.0,-0.00035978678619,0.00185732923147,-0.001439441939,0.0,0.0,0.0,0.0,0.0,0.0,0.0,0.0,0.0,0.396259471029,0.260788697377,8.595825243,0.0,0.0,0.0,0.0,0.0,0.0,0.0,0.0,0.0
1441927235681198661,46,1441927235679784955,ardrone_base_link,-0.00294490493335,0.014045647263,-0.418955374903,0.907893408483,0.0,0.0,0.0,0.0,0.0,0.0,0.0,0.0,0.0,-2.86285060482e-05,0.000383096272498,-0.00180265211602,0.0,0.0,0.0,0.0,0.0,0.0,0.0,0.0,0.0,0.396631705016,0.23919131346,8.60632373095,0.0,0.0,0.0,0.0,0.0,0.0,0.0,0.0,0.0
1441927235701202740,47,1441927235699915737,ardrone_base_link,-0.00292467161854,0.0140267819275,-0.418963770716,0.907889891183,0.0,0.0,0.0,0.0,0.0,0.0,0.0,0.0,0.0,-0.00138647052101,0.0020915433244,8.55331296277e-05,0.0,0.0,0.0,0.0,0.0,0.0,0.0,0.0,0.0,0.396241071075,0.251284975186,8.61480289698,0.0,0.0,0.0,0.0,0.0,0.0,0.0,0.0,0.0
1441927235721205225,48,1441927235719896592,ardrone_base_link,-0.00289663806101,0.0140042347809,-0.418964369514,0.9078900528,0.0,0.0,0.0,0.0,0.0,0.0,0.0,0.0,0.0,-0.000437768511552,0.0015628305606,-0.000657690902752,0.0,0.0,0.0,0.0,0.0,0.0,0.0,0.0,0.0,0.3971449323,0.260580657423,8.64795902967,0.0,0.0,0.0,0.0,0.0,0.0,0.0,0.0,0.0
1441927235741362394,49,1441927235739615015,ardrone_base_link,-0.00288054841815,0.013996972807,-0.418980450788,0.907882794776,0.0,0.0,0.0,0.0,0.0,0.0,0.0,0.0,0.0,-0.00105596033389,0.00303341457928,-0.00120051490922,0.0,0.0,0.0,0.0,0.0,0.0,0.0,0.0,0.0,0.397647134215,0.257218339667,8.59837553501,0.0,0.0,0.0,0.0,0.0,0.0,0.0,0.0,0.0
1441927235761261478,50,1441927235759665253,ardrone_base_link,-0.00284885723044,0.0139823475766,-0.41898093912,0.907882894774,0.0,0.0,0.0,0.0,0.0,0.0,0.0,0.0,0.0,-0.00131961464515,0.00256551070325,-0.000251589577195,0.0,0.0,0.0,0.0,0.0,0.0,0.0,0.0,0.0,0.39775172919,0.256875275448,8.60901304483,0.0,0.0,0.0,0.0,0.0,0.0,0.0,0.0,0.0
1441927235781250358,51,1441927235779702627,ardrone_base_link,-0.00282130878229,0.0139793256388,-0.418989114647,0.90787925435,0.0,0.0,0.0,0.0,0.0,0.0,0.0,0.0,0.0,-0.000127669071099,0.00318061742643,-0.00139206784059,0.0,0.0,0.0,0.0,0.0,0.0,0.0,0.0,0.0,0.397388658673,0.257737645507,8.614970541,0.0,0.0,0.0,0.0,0.0,0.0,0.0,0.0,0.0
1441927235801232110,52,1441927235800046313,ardrone_base_link,-0.00278949639214,0.0139647246539,-0.418997520738,0.907875697874,0.0,0.0,0.0,0.0,0.0,0.0,0.0,0.0,0.0,-6.79339286232e-05,0.00147433207979,-0.000470911635585,0.0,0.0,0.0,0.0,0.0,0.0,0.0,0.0,0.0,0.397405014187,0.256563370675,8.61154873371,0.0,0.0,0.0,0.0,0.0,0.0,0.0,0.0,0.0
1441927235821319588,53,1441927235815786711,ardrone_base_link,-0.0027773088329,0.0139494892489,-0.418997872799,0.907875806977,0.0,0.0,0.0,0.0,0.0,0.0,0.0,0.0,0.0,-0.00213570004336,0.00171092390223,-0.000603486537406,0.0,0.0,0.0,0.0,0.0,0.0,0.0,0.0,0.0,0.396527803689,0.25637422353,8.61215213537,0.0,0.0,0.0,0.0,0.0,0.0,0.0,0.0,0.0
1441927235841552852,54,1441927235834767458,ardrone_base_link,-0.00276499931004,0.0139342792057,-0.419006172979,0.907872247427,0.0,0.0,0.0,0.0,0.0,0.0,0.0,0.0,0.0,0.000217775705228,0.00181232441014,-0.000998864397196,0.0,0.0,0.0,0.0,0.0,0.0,0.0,0.0,0.0,0.395718388259,0.241777218878,8.6125440836,0.0,0.0,0.0,0.0,0.0,0.0,0.0,0.0,0.0
1441927235861124553,55,1441927235859627063,ardrone_base_link,-0.00272514315603,0.0139160441359,-0.419022617189,0.907865058032,0.0,0.0,0.0,0.0,0.0,0.0,0.0,0.0,0.0,-0.00063884292644,0.00260063452082,-0.000570977116971,0.0,0.0,0.0,0.0,0.0,0.0,0.0,0.0,0.0,0.39748237431,0.258772022277,8.61231452227,0.0,0.0,0.0,0.0,0.0,0.0,0.0,0.0,0.0
1441927235881308607,56,1441927235880101730,ardrone_base_link,-0.00270137511192,0.0139050740562,-0.419022981369,0.907865129065,0.0,0.0,0.0,0.0,0.0,0.0,0.0,0.0,0.0,0.000523296878568,0.00212440553566,-0.000528937207943,0.0,0.0,0.0,0.0,0.0,0.0,0.0,0.0,0.0,0.397581712157,0.240549405292,8.61262586117,0.0,0.0,0.0,0.0,0.0,0.0,0.0,0.0,0.0
1441927235901342856,57,1441927235900184398,ardrone_base_link,-0.00269345258754,0.0139014174336,-0.419023102697,0.907865152604,0.0,0.0,0.0,0.0,0.0,0.0,0.0,0.0,0.0,-0.00119489938443,0.00136684063124,-4.19687705728e-05,0.0,0.0,0.0,0.0,0.0,0.0,0.0,0.0,0.0,0.36347232312,0.236534181237,8.63127815723,0.0,0.0,0.0,0.0,0.0,0.0,0.0,0.0,0.0
1441927235921242919,58,1441927235919749646,ardrone_base_link,-0.00263896425352,0.0139148674479,-0.419039116165,0.907857715424,0.0,0.0,0.0,0.0,0.0,0.0,0.0,0.0,0.0,0.00116624530576,0.00143114426772,-0.00155817770092,0.0,0.0,0.0,0.0,0.0,0.0,0.0,0.0,0.0,0.313759408146,0.25392023921,8.60530910492,0.0,0.0,0.0,0.0,0.0,0.0,0.0,0.0,0.0
1441927235941168723,59,1441927235939843816,ardrone_base_link,-0.00260422138916,0.0139276627089,-0.419039158707,0.907857599909,0.0,0.0,0.0,0.0,0.0,0.0,0.0,0.0,0.0,7.91868660914e-06,0.00151561757823,-7.30110355578e-06,0.0,0.0,0.0,0.0,0.0,0.0,0.0,0.0,0.0,0.382188507915,0.257644349709,8.6206791997,0.0,0.0,0.0,0.0,0.0,0.0,0.0,0.0,0.0
1441927235961148875,60,1441927235959724497,ardrone_base_link,-0.00257972639715,0.0138972143897,-0.419047776695,0.907854158602,0.0,0.0,0.0,0.0,0.0,0.0,0.0,0.0,0.0,-0.00107825689572,0.000953640333212,-0.000360553160201,0.0,0.0,0.0,0.0,0.0,0.0,0.0,0.0,0.0,0.391534735262,0.258680132031,8.61073563099,0.0,0.0,0.0,0.0,0.0,0.0,0.0,0.0,0.0
1441927235981278430,61,1441927235980035940,ardrone_base_link,-0.00256388153968,0.0138899007105,-0.41904801918,0.907854203488,0.0,0.0,0.0,0.0,0.0,0.0,0.0,0.0,0.0,-0.00088016023431,0.00308851210488,-0.00054399577133,0.0,0.0,0.0,0.0,0.0,0.0,0.0,0.0,0.0,0.397553674132,0.257135120034,8.61294128895,0.0,0.0,0.0,0.0,0.0,0.0,0.0,0.0,0.0
1441927236001428045,62,1441927235995074693,ardrone_base_link,-0.00255169475669,0.0138746645935,-0.419048368167,0.907854309717,0.0,0.0,0.0,0.0,0.0,0.0,0.0,0.0,0.0,-0.000600585863461,0.000867150731496,0.000288211276575,0.0,0.0,0.0,0.0,0.0,0.0,0.0,0.0,0.0,0.395494996756,0.258108692989,8.61215680838,0.0,0.0,0.0,0.0,0.0,0.0,0.0,0.0,0.0
1441927236021108871,63,1441927236019945941,ardrone_base_link,-0.00252354139506,0.0138521378109,-0.419056906919,0.907850791034,0.0,0.0,0.0,0.0,0.0,0.0,0.0,0.0,0.0,-0.000949769386985,0.00318796972755,0.00025520566684,0.0,0.0,0.0,0.0,0.0,0.0,0.0,0.0,0.0,0.396223328263,0.256922133267,8.61231919527,0.0,0.0,0.0,0.0,0.0,0.0,0.0,0.0,0.0
1441927236041287566,64,1441927236039774679,ardrone_base_link,-0.00251123452596,0.0138369236843,-0.419065172896,0.907847241616,0.0,0.0,0.0,0.0,0.0,0.0,0.0,0.0,0.0,-0.000134713135379,0.000716856705962,-0.00108045757963,0.0,0.0,0.0,0.0,0.0,0.0,0.0,0.0,0.0,0.396768609434,0.204107621312,8.61312820911,0.0,0.0,0.0,0.0,0.0,0.0,0.0,0.0,0.0
1441927236061120914,65,1441927236059852815,ardrone_base_link,-0.00247637054638,0.0138497396284,-0.419073135212,0.907843466488,0.0,0.0,0.0,0.0,0.0,0.0,0.0,0.0,0.0,0.000538896071455,0.00262271717152,-0.000906183856255,0.0,0.0,0.0,0.0,0.0,0.0,0.0,0.0,0.0,0.3135735102,0.276669390872,8.61176427603,0.0,0.0,0.0,0.0,0.0,0.0,0.0,0.0,0.0
1441927236081144843,66,1441927236080149133,ardrone_base_link,-0.00244589174954,0.0138741121272,-0.419072953121,0.907843261025,0.0,0.0,0.0,0.0,0.0,0.0,0.0,0.0,0.0,-0.000880565365086,0.00127214197857,0.00113693701014,0.0,0.0,0.0,0.0,0.0,0.0,0.0,0.0,0.0,0.335603293031,0.217593600973,8.55905570984,0.0,0.0,0.0,0.0,0.0,0.0,0.0,0.0,0.0
1441927236101167287,67,1441927236099978705,ardrone_base_link,-0.00245015533231,0.0138856913087,-0.41907272594,0.907843177365,0.0,0.0,0.0,0.0,0.0,0.0,0.0,0.0,0.0,-0.000963675105916,0.00255931677317,-0.000722455911084,0.0,0.0,0.0,0.0,0.0,0.0,0.0,0.0,0.0,0.409343736619,0.185871697217,8.63325425386,0.0,0.0,0.0,0.0,0.0,0.0,0.0,0.0,0.0
1441927236121153913,68,1441927236120078782,ardrone_base_link,-0.00246161534407,0.013881447712,-0.419080628978,0.90783956307,0.0,0.0,0.0,0.0,0.0,0.0,0.0,0.0,0.0,-0.00116039233312,0.00139157473967,-0.000692033196981,0.0,0.0,0.0,0.0,0.0,0.0,0.0,0.0,0.0,0.393426425755,0.238586433232,8.60798381567,0.0,0.0,0.0,0.0,0.0,0.0,0.0,0.0,0.0
1441927236141147053,69,1441927236140279683,ardrone_base_link,-0.00247307546681,0.0138772054783,-0.41908853204,0.907835948494,0.0,0.0,0.0,0.0,0.0,0.0,0.0,0.0,0.0,9.93737487045e-05,0.00143734040844,-0.00126220661927,0.0,0.0,0.0,0.0,0.0,0.0,0.0,0.0,0.0,0.395782642066,0.192157946527,8.61208963394,0.0,0.0,0.0,0.0,0.0,0.0,0.0,0.0,0.0
1441927236161132239,70,1441927236160018219,ardrone_base_link,-0.00247661339022,0.0138693050193,-0.419096556212,0.907832355303,0.0,0.0,0.0,0.0,0.0,0.0,0.0,0.0,0.0,-0.000860360581029,0.00223035604385,-0.000691975005351,0.0,0.0,0.0,0.0,0.0,0.0,0.0,0.0,0.0,0.395827291161,0.198768732324,8.61341034174,0.0,0.0,0.0,0.0,0.0,0.0,0.0,0.0,0.0
1441927236181149071,71,1441927236180278360,ardrone_base_link,-0.00246856974529,0.0138656690677,-0.419104595207,0.907828721544,0.0,0.0,0.0,0.0,0.0,0.0,0.0,0.0,0.0,-0.00234201115228,0.00209092538781,0.000260854611177,0.0,0.0,0.0,0.0,0.0,0.0,0.0,0.0,0.0,0.397679699212,0.275874176994,8.61208028793,0.0,0.0,0.0,0.0,0.0,0.0,0.0,0.0,0.0
1441927236201058686,72,1441927236196234761,ardrone_base_link,-0.00246064753864,0.0138620117328,-0.419104716191,0.907828743052,0.0,0.0,0.0,0.0,0.0,0.0,0.0,0.0,0.0,-0.00064038406186,0.00239190224999,-0.000839021287756,0.0,0.0,0.0,0.0,0.0,0.0,0.0,0.0,0.0,0.397232222557,0.255075968057,8.61217082739,0.0,0.0,0.0,0.0,0.0,0.0,0.0,0.0,0.0
1441927236221195291,73,1441927236215606825,ardrone_base_link,-0.0024402980056,0.013843160371,-0.419121050813,0.90782154448,0.0,0.0,0.0,0.0,0.0,0.0,0.0,0.0,0.0,-0.000796865905729,0.00184546828188,-0.00105573283387,0.0,0.0,0.0,0.0,0.0,0.0,0.0,0.0,0.0,0.397256609797,0.254417914152,8.61246289015,0.0,0.0,0.0,0.0,0.0,0.0,0.0,0.0,0.0
1441927236241257695,74,1441927236230004817,ardrone_base_link,-0.00242433257075,0.0138358663402,-0.419129210241,0.907817931381,0.0,0.0,0.0,0.0,0.0,0.0,0.0,0.0,0.0,-0.00147133277266,0.00241102707542,-0.00136847519836,0.0,0.0,0.0,0.0,0.0,0.0,0.0,0.0,0.0,0.397084365785,0.257383209094,8.61234314442,0.0,0.0,0.0,0.0,0.0,0.0,0.0,0.0,0.0
1441927236261184935,75,1441927236260126029,ardrone_base_link,-0.00240410404393,0.0138169934712,-0.419137595573,0.907814401159,0.0,0.0,0.0,0.0,0.0,0.0,0.0,0.0,0.0,-0.000872500330287,0.00297121416385,-0.00122370573662,0.0,0.0,0.0,0.0,0.0,0.0,0.0,0.0,0.0,0.397094843537,0.258716548607,8.64764360189,0.0,0.0,0.0,0.0,0.0,0.0,0.0,0.0,0.0
1441927236283324121,76,1441927236271897869,ardrone_base_link,-0.00239618196225,0.0138133358484,-0.419137716132,0.907814422104,0.0,0.0,0.0,0.0,0.0,0.0,0.0,0.0,0.0,-0.00127443427365,0.00229241549899,-0.000960635942394,0.0,0.0,0.0,0.0,0.0,0.0,0.0,0.0,0.0,0.396995907277,0.258225061744,8.65276346207,0.0,0.0,0.0,0.0,0.0,0.0,0.0,0.0,0.0
1441927236300835768,77,1441927236285057756,ardrone_base_link,-0.00238813943419,0.013809699054,-0.419145754475,0.907810787283,0.0,0.0,0.0,0.0,0.0,0.0,0.0,0.0,0.0,-0.00102091336828,0.000821114520419,-0.000268377358503,0.0,0.0,0.0,0.0,0.0,0.0,0.0,0.0,0.0,0.396780693531,0.257238510251,8.60484998226,0.0,0.0,0.0,0.0,0.0,0.0,0.0,0.0,0.0
1441927236320704925,78,1441927236317248115,ardrone_base_link,-0.00236803217571,0.013790803897,-0.41914622091,0.907810911836,0.0,0.0,0.0,0.0,0.0,0.0,0.0,0.0,0.0,-0.000842486648075,0.00200194772006,-0.0013123493389,0.0,0.0,0.0,0.0,0.0,0.0,0.0,0.0,0.0,0.396913034469,0.242269892246,8.64149918556,0.0,0.0,0.0,0.0,0.0,0.0,0.0,0.0,0.0
1441927236340807376,79,1441927236329488375,ardrone_base_link,-0.00238741540294,0.0137902194228,-0.419154003064,0.9078072768,0.0,0.0,0.0,0.0,0.0,0.0,0.0,0.0,0.0,6.29909357183e-05,0.00168997374516,-0.000431700392424,0.0,0.0,0.0,0.0,0.0,0.0,0.0,0.0,0.0,0.396000009775,0.187401029095,8.61316617727,0.0,0.0,0.0,0.0,0.0,0.0,0.0,0.0,0.0
1441927236380901686,80,1441927236379625722,ardrone_base_link,-0.0023946141335,0.0137743966638,-0.419162131015,0.907803745169,0.0,0.0,0.0,0.0,0.0,0.0,0.0,0.0,0.0,-0.00170064004334,0.00113267920335,0.000211350617837,0.0,0.0,0.0,0.0,0.0,0.0,0.0,0.0,0.0,0.397069251537,0.252673295513,8.61517148018,0.0,0.0,0.0,0.0,0.0,0.0,0.0,0.0,0.0
1441927236401031793,81,1441927236400034454,ardrone_base_link,-0.00235403993339,0.0137366682161,-0.419186844198,0.907793011701,0.0,0.0,0.0,0.0,0.0,0.0,0.0,0.0,0.0,-3.31985076733e-05,0.000887861035019,-0.00132728280653,0.0,0.0,0.0,0.0,0.0,0.0,0.0,0.0,0.0,0.397630085051,0.25962449871,8.612438941,0.0,0.0,0.0,0.0,0.0,0.0,0.0,0.0,0.0
1441927236421193289,82,1441927236415373331,ardrone_base_link,-0.00233381387248,0.0137177936485,-0.419195225659,0.907789479029,0.0,0.0,0.0,0.0,0.0,0.0,0.0,0.0,0.0,-0.0003496152469,0.00194923442583,0.000456439799871,0.0,0.0,0.0,0.0,0.0,0.0,0.0,0.0,0.0,0.396558944881,0.257211750001,8.61241966486,0.0,0.0,0.0,0.0,0.0,0.0,0.0,0.0,0.0
1441927236441431992,83,1441927236425388139,ardrone_base_link,-0.00232589200828,0.0137141355227,-0.419195345352,0.90778949936,0.0,0.0,0.0,0.0,0.0,0.0,0.0,0.0,0.0,0.000307444845581,0.00173132309184,-0.000519795107844,0.0,0.0,0.0,0.0,0.0,0.0,0.0,0.0,0.0,0.396493814886,0.255568148568,8.61228122711,0.0,0.0,0.0,0.0,0.0,0.0,0.0,0.0,0.0
1441927236461263039,84,1441927236458980918,ardrone_base_link,-0.00231796967172,0.0137104771778,-0.41919546502,0.907789519624,0.0,0.0,0.0,0.0,0.0,0.0,0.0,0.0,0.0,-0.000570727055509,0.00168454651419,-0.000298722635477,0.0,0.0,0.0,0.0,0.0,0.0,0.0,0.0,0.0,0.396658976376,0.258055884391,8.61246289015,0.0,0.0,0.0,0.0,0.0,0.0,0.0,0.0,0.0
1441927236481303312,85,1441927236480053591,ardrone_base_link,-0.00229762501679,0.0136916211921,-0.419211762968,0.907782329756,0.0,0.0,0.0,0.0,0.0,0.0,0.0,0.0,0.0,-0.00199295213934,0.000992421055839,6.42444939561e-05,0.0,0.0,0.0,0.0,0.0,0.0,0.0,0.0,0.0,0.397872205079,0.257907169685,8.61237235069,0.0,0.0,0.0,0.0,0.0,0.0,0.0,0.0,0.0
1441927236501149366,86,1441927236495768282,ardrone_base_link,-0.00227728008807,0.0136727643426,-0.419228090286,0.907775125142,0.0,0.0,0.0,0.0,0.0,0.0,0.0,0.0,0.0,-0.000818621382938,0.000832322553414,-0.00110146872413,0.0,0.0,0.0,0.0,0.0,0.0,0.0,0.0,0.0,0.396211390197,0.257836125419,8.61114218235,0.0,0.0,0.0,0.0,0.0,0.0,0.0,0.0,0.0
1441927236521363557,87,1441927236520454026,ardrone_base_link,-0.0022967836488,0.0136721607715,-0.419227955429,0.907775147375,0.0,0.0,0.0,0.0,0.0,0.0,0.0,0.0,0.0,-0.0014419067934,0.00215309953573,-0.000867039289649,0.0,0.0,0.0,0.0,0.0,0.0,0.0,0.0,0.0,0.395840872079,0.167555565387,8.63462285995,0.0,0.0,0.0,0.0,0.0,0.0,0.0,0.0,0.0
1441927236541330019,88,1441927236531297554,ardrone_base_link,-0.00230458610906,0.0136758392826,-0.419235753575,0.907771470816,0.0,0.0,0.0,0.0,0.0,0.0,0.0,0.0,0.0,-0.00179844411347,0.00128950558068,-0.000611862165966,0.0,0.0,0.0,0.0,0.0,0.0,0.0,0.0,0.0,0.396762695163,0.220203181729,8.604979074,0.0,0.0,0.0,0.0,0.0,0.0,0.0,0.0,0.0
1441927236561329812,89,1441927236558905111,ardrone_base_link,-0.00230020534056,0.0136642793412,-0.419243894171,0.907767896395,0.0,0.0,0.0,0.0,0.0,0.0,0.0,0.0,0.0,-0.000800687242778,0.00227645317733,-0.00119371149496,0.0,0.0,0.0,0.0,0.0,0.0,0.0,0.0,0.0,0.397420530021,0.251707443967,8.60861116648,0.0,0.0,0.0,0.0,0.0,0.0,0.0,0.0,0.0
1441927236581064351,90,1441927236575399412,ardrone_base_link,-0.00227632075799,0.0136533233229,-0.419252169171,0.907764299679,0.0,0.0,0.0,0.0,0.0,0.0,0.0,0.0,0.0,-0.000232819233068,0.00173879372678,-0.00163958135419,0.0,0.0,0.0,0.0,0.0,0.0,0.0,0.0,0.0,0.397381868213,0.257862776145,8.61467847824,0.0,0.0,0.0,0.0,0.0,0.0,0.0,0.0,0.0
1441927236601125331,91,1441927236596326045,ardrone_base_link,-0.00225597776756,0.0136344651211,-0.419268464582,0.907757107674,0.0,0.0,0.0,0.0,0.0,0.0,0.0,0.0,0.0,-0.00111114726003,0.00182351514819,-0.000662206703263,0.0,0.0,0.0,0.0,0.0,0.0,0.0,0.0,0.0,0.396634625643,0.256673204526,8.61175493002,0.0,0.0,0.0,0.0,0.0,0.0,0.0,0.0,0.0
1441927236621152772,92,1441927236615773436,ardrone_base_link,-0.00224367577064,0.0136192466979,-0.419276722999,0.907753552232,0.0,0.0,0.0,0.0,0.0,0.0,0.0,0.0,0.0,-0.000628097240573,0.00180558952546,-0.000671804421068,0.0,0.0,0.0,0.0,0.0,0.0,0.0,0.0,0.0,0.396765871346,0.242967977002,8.68168526888,0.0,0.0,0.0,0.0,0.0,0.0,0.0,0.0,0.0
1441927236641109481,93,1441927236640311481,ardrone_base_link,-0.00225585884956,0.0136344847969,-0.419276381898,0.907753450837,0.0,0.0,0.0,0.0,0.0,0.0,0.0,0.0,0.0,0.000220655573227,0.00135588695093,-0.000497590969918,0.0,0.0,0.0,0.0,0.0,0.0,0.0,0.0,0.0,0.396997805685,0.17531253323,8.65904631615,0.0,0.0,0.0,0.0,0.0,0.0,0.0,0.0,0.0
1441927236661074737,94,1441927236660263998,ardrone_base_link,-0.00227512416391,0.0136339220179,-0.419292112096,0.907746145525,0.0,0.0,0.0,0.0,0.0,0.0,0.0,0.0,0.0,-0.00133677356877,0.00219121121717,-0.000854983479379,0.0,0.0,0.0,0.0,0.0,0.0,0.0,0.0,0.0,0.396418316662,0.189352117851,8.59345661402,0.0,0.0,0.0,0.0,0.0,0.0,0.0,0.0,0.0
1441927236681361222,95,1441927236676115076,ardrone_base_link,-0.00226294131602,0.0136186825468,-0.419292453313,0.907746247129,0.0,0.0,0.0,0.0,0.0,0.0,0.0,0.0,0.0,0.000646344185125,0.0015216753594,-0.000472325367097,0.0,0.0,0.0,0.0,0.0,0.0,0.0,0.0,0.0,0.396275132895,0.263640799746,8.61861665249,0.0,0.0,0.0,0.0,0.0,0.0,0.0,0.0,0.0
1441927236701151778,96,1441927236697216414,ardrone_base_link,-0.00224697962546,0.0136113841956,-0.419300608159,0.907742629439,0.0,0.0,0.0,0.0,0.0,0.0,0.0,0.0,0.0,-0.00054504582141,0.00083258750413,0.000117083078994,0.0,0.0,0.0,0.0,0.0,0.0,0.0,0.0,0.0,0.397319001704,0.253762324527,8.61348218918,0.0,0.0,0.0,0.0,0.0,0.0,0.0,0.0,0.0
1441927236721178983,97,1441927236715593558,ardrone_base_link,-0.00222309616576,0.0136004262283,-0.419308881554,0.907739030834,0.0,0.0,0.0,0.0,0.0,0.0,0.0,0.0,0.0,-0.000738097821178,0.00393698169774,-0.000833262722092,0.0,0.0,0.0,0.0,0.0,0.0,0.0,0.0,0.0,0.397297717631,0.257875207067,8.61158261299,0.0,0.0,0.0,0.0,0.0,0.0,0.0,0.0,0.0
1441927236741142622,98,1441927236736045568,ardrone_base_link,-0.00220737187481,0.0135930887402,-0.419301201668,0.907742726618,0.0,0.0,0.0,0.0,0.0,0.0,0.0,0.0,0.0,-0.00153232293223,0.000867351898985,-8.71174292587e-05,0.0,0.0,0.0,0.0,0.0,0.0,0.0,0.0,0.0,0.397167165577,0.256811989099,8.61272633076,0.0,0.0,0.0,0.0,0.0,0.0,0.0,0.0,0.0
1441927236761155939,99,1441927236755557026,ardrone_base_link,-0.00219933189339,0.0135894488724,-0.419309237464,0.907739088723,0.0,0.0,0.0,0.0,0.0,0.0,0.0,0.0,0.0,-0.000892022419246,0.00347466941965,-0.00109149396357,0.0,0.0,0.0,0.0,0.0,0.0,0.0,0.0,0.0,0.39731162712,0.257276697457,8.61265448332,0.0,0.0,0.0,0.0,0.0,0.0,0.0,0.0,0.0
1441927236781199874,100,1441927236775936385,ardrone_base_link,-0.00217533028793,0.0135785092371,-0.419325427381,0.907731831532,0.0,0.0,0.0,0.0,0.0,0.0,0.0,0.0,0.0,0.000227485433792,0.00190351348985,-0.00129865109426,0.0,0.0,0.0,0.0,0.0,0.0,0.0,0.0,0.0,0.397286692262,0.257239222154,8.61233847141,0.0,0.0,0.0,0.0,0.0,0.0,0.0,0.0,0.0
1441927236801262271,101,1441927236796060318,ardrone_base_link,-0.00215144739768,0.0135675499951,-0.419333699821,0.907728230835,0.0,0.0,0.0,0.0,0.0,0.0,0.0,0.0,0.0,0.000691724358722,0.00298840975795,-0.000739826795279,0.0,0.0,0.0,0.0,0.0,0.0,0.0,0.0,0.0,0.39691555351,0.240341894701,8.61255401373,0.0,0.0,0.0,0.0,0.0,0.0,0.0,0.0,0.0
1441927236821378556,102,1441927236815645964,ardrone_base_link,-0.00213182501352,0.0135681711549,-0.419341781618,0.90772453434,0.0,0.0,0.0,0.0,0.0,0.0,0.0,0.0,0.0,-0.00104150969423,0.00189211222163,-0.000719127739971,0.0,0.0,0.0,0.0,0.0,0.0,0.0,0.0,0.0,0.397059649974,0.250100459903,8.61248216629,0.0,0.0,0.0,0.0,0.0,0.0,0.0,0.0,0.0
1441927236841615282,103,1441927236835724479,ardrone_base_link,-0.00211964294785,0.0135529309924,-0.419342120447,0.907724634013,0.0,0.0,0.0,0.0,0.0,0.0,0.0,0.0,0.0,0.000234045207173,0.00110057185782,0.000796689120208,0.0,0.0,0.0,0.0,0.0,0.0,0.0,0.0,0.0,0.396032538265,0.191419082507,8.6132286787,0.0,0.0,0.0,0.0,0.0,0.0,0.0,0.0,0.0
1441927236861262056,104,1441927236857152026,ardrone_base_link,-0.00213122528367,0.0135486704273,-0.419342104257,0.907724677975,0.0,0.0,0.0,0.0,0.0,0.0,0.0,0.0,0.0,-0.00119591588493,0.00116799638618,-0.000624698589317,0.0,0.0,0.0,0.0,0.0,0.0,0.0,0.0,0.0,0.395635734499,0.208734187484,8.61299911737,0.0,0.0,0.0,0.0,0.0,0.0,0.0,0.0,0.0
1441927236881093897,105,1441927236880399898,ardrone_base_link,-0.00209942157371,0.0135340508843,-0.419350493975,0.907721094334,0.0,0.0,0.0,0.0,0.0,0.0,0.0,0.0,0.0,0.000267697963097,0.00152301084105,-0.00101945760226,0.0,0.0,0.0,0.0,0.0,0.0,0.0,0.0,0.0,0.397200424224,0.272549955174,8.62868463993,0.0,0.0,0.0,0.0,0.0,0.0,0.0,0.0,0.0
1441927236901015982,106,1441927236900425445,ardrone_base_link,-0.00208346058818,0.0135267498759,-0.419358647131,0.907717473284,0.0,0.0,0.0,0.0,0.0,0.0,0.0,0.0,0.0,-0.000491725513707,0.00267751015008,-0.000261014800705,0.0,0.0,0.0,0.0,0.0,0.0,0.0,0.0,0.0,0.397645637393,0.259731831774,8.6186259985,0.0,0.0,0.0,0.0,0.0,0.0,0.0,0.0,0.0
1441927236921267050,107,1441927236916798204,ardrone_base_link,-0.00206761811637,0.0135194307712,-0.419358883151,0.907717509509,0.0,0.0,0.0,0.0,0.0,0.0,0.0,0.0,0.0,-0.000249081290386,0.00201521541166,-0.000160266884295,0.0,0.0,0.0,0.0,0.0,0.0,0.0,0.0,0.0,0.397226271778,0.25692149438,8.60864446163,0.0,0.0,0.0,0.0,0.0,0.0,0.0,0.0,0.0
1441927236941245691,108,1441927236935963010,ardrone_base_link,-0.00207127925193,0.0135115096928,-0.419358984683,0.907717572196,0.0,0.0,0.0,0.0,0.0,0.0,0.0,0.0,0.0,0.000244080678827,0.00112280899268,-0.000436083815105,0.0,0.0,0.0,0.0,0.0,0.0,0.0,0.0,0.0,0.377756528556,0.189600425959,8.6158747673,0.0,0.0,0.0,0.0,0.0,0.0,0.0,0.0,0.0
1441927236961245640,109,1441927236956578118,ardrone_base_link,-0.00207920048846,0.0135151692466,-0.419358866759,0.907717554086,0.0,0.0,0.0,0.0,0.0,0.0,0.0,0.0,0.0,-0.000935027464087,0.00238687865437,0.000500953990991,0.0,0.0,0.0,0.0,0.0,0.0,0.0,0.0,0.0,0.402281549573,0.187870410457,8.61242959499,0.0,0.0,0.0,0.0,0.0,0.0,0.0,0.0,0.0
1441927236981302133,110,1441927236976144643,ardrone_base_link,-0.00210296466925,0.0135261481199,-0.419358512786,0.907717499341,0.0,0.0,0.0,0.0,0.0,0.0,0.0,0.0,0.0,-0.00119495256963,0.0012484393249,0.000562337382936,0.0,0.0,0.0,0.0,0.0,0.0,0.0,0.0,0.0,0.388512360305,0.21157338433,8.61316617727,0.0,0.0,0.0,0.0,0.0,0.0,0.0,0.0,0.0
1441927237001454919,111,1441927236995795861,ardrone_base_link,-0.00209066502098,0.0135109259567,-0.419366767412,0.907713940837,0.0,0.0,0.0,0.0,0.0,0.0,0.0,0.0,0.0,-0.000719955556541,0.00199371675785,-0.000997397968125,0.0,0.0,0.0,0.0,0.0,0.0,0.0,0.0,0.0,0.399240190536,0.262530085072,8.61225727797,0.0,0.0,0.0,0.0,0.0,0.0,0.0,0.0,0.0
1441927237021262200,112,1441927237015556811,ardrone_base_link,-0.00207470483415,0.013503624806,-0.419374920096,0.907710319492,0.0,0.0,0.0,0.0,0.0,0.0,0.0,0.0,0.0,-0.00135213303815,0.00160393075608,-0.000452439531688,0.0,0.0,0.0,0.0,0.0,0.0,0.0,0.0,0.0,0.396539778262,0.263098603487,8.61228122711,0.0,0.0,0.0,0.0,0.0,0.0,0.0,0.0,0.0
1441927237041278074,113,1441927237035867592,ardrone_base_link,-0.00205520074257,0.0135042262164,-0.419375054355,0.907710292885,0.0,0.0,0.0,0.0,0.0,0.0,0.0,0.0,0.0,-0.000736886655055,0.00375723549045,-0.000553368589864,0.0,0.0,0.0,0.0,0.0,0.0,0.0,0.0,0.0,0.397014161199,0.254852686077,8.612434268,0.0,0.0,0.0,0.0,0.0,0.0,0.0,0.0,0.0
1441927237061280599,114,1441927237058210163,ardrone_base_link,-0.00205082316027,0.0134926633907,-0.419383190387,0.907706715729,0.0,0.0,0.0,0.0,0.0,0.0,0.0,0.0,0.0,-0.00172532512777,0.00178645507728,-0.00076487799933,0.0,0.0,0.0,0.0,0.0,0.0,0.0,0.0,0.0,0.398164486885,0.257428898662,8.61235774755,0.0,0.0,0.0,0.0,0.0,0.0,0.0,0.0,0.0
1441927237081375921,115,1441927237075789912,ardrone_base_link,-0.00203120184983,0.013493282562,-0.419391241532,0.907703030771,0.0,0.0,0.0,0.0,0.0,0.0,0.0,0.0,0.0,0.000693974326711,0.00305038598932,-0.000220277815273,0.0,0.0,0.0,0.0,0.0,0.0,0.0,0.0,0.0,0.396330551803,0.22406616807,8.6128075242,0.0,0.0,0.0,0.0,0.0,0.0,0.0,0.0,0.0
1441927237101227552,116,1441927237095810074,ardrone_base_link,-0.0020505873485,0.0134926992309,-0.419399054326,0.907699386025,0.0,0.0,0.0,0.0,0.0,0.0,0.0,0.0,0.0,-4.01854043658e-06,0.000762053787236,-0.00128767959886,0.0,0.0,0.0,0.0,0.0,0.0,0.0,0.0,0.0,0.396073828638,0.173620942235,8.61340566874,0.0,0.0,0.0,0.0,0.0,0.0,0.0,0.0,0.0
1441927237121648925,117,1441927237116008830,ardrone_base_link,-0.0020741154989,0.0135037153387,-0.419414534533,0.907692016016,0.0,0.0,0.0,0.0,0.0,0.0,0.0,0.0,0.0,-0.00130640547028,0.00277962547227,-0.00138422282867,0.0,0.0,0.0,0.0,0.0,0.0,0.0,0.0,0.0,0.395126084983,0.174675069749,8.61340566874,0.0,0.0,0.0,0.0,0.0,0.0,0.0,0.0,0.0
1441927237141296116,118,1441927237135972318,ardrone_base_link,-0.00207033603293,0.0135116542521,-0.419422349777,0.907688295295,0.0,0.0,0.0,0.0,0.0,0.0,0.0,0.0,0.0,0.000566944729608,0.00344509480791,-0.000965088154733,0.0,0.0,0.0,0.0,0.0,0.0,0.0,0.0,0.0,0.397592847049,0.249823821709,8.61248683929,0.0,0.0,0.0,0.0,0.0,0.0,0.0,0.0,0.0
1441927237161307837,119,1441927237150920135,ardrone_base_link,-0.00206241505172,0.0135079941443,-0.419422467671,0.907688313327,0.0,0.0,0.0,0.0,0.0,0.0,0.0,0.0,0.0,-0.00286024305089,0.00137032614732,4.45491182886e-05,0.0,0.0,0.0,0.0,0.0,0.0,0.0,0.0,0.0,0.398533727229,0.263325627521,8.61230517626,0.0,0.0,0.0,0.0,0.0,0.0,0.0,0.0,0.0
1441927237181272043,120,1441927237175974827,ardrone_base_link,-0.00204219567113,0.0134891105816,-0.419430839114,0.907684771566,0.0,0.0,0.0,0.0,0.0,0.0,0.0,0.0,0.0,0.00127394533393,0.0008297558149,0.000224086457444,0.0,0.0,0.0,0.0,0.0,0.0,0.0,0.0,0.0,0.396122785658,0.259047711268,8.61235307455,0.0,0.0,0.0,0.0,0.0,0.0,0.0,0.0,0.0
1441927237201200522,121,1441927237197272871,ardrone_base_link,-0.00202623618368,0.0134818078899,-0.419438991162,0.907681148816,0.0,0.0,0.0,0.0,0.0,0.0,0.0,0.0,0.0,-0.00202034784839,0.00280291954917,-0.00112443276671,0.0,0.0,0.0,0.0,0.0,0.0,0.0,0.0,0.0,0.395916443318,0.257107958198,8.61235774755,0.0,0.0,0.0,0.0,0.0,0.0,0.0,0.0,0.0
1441927237221369725,122,1441927237216062228,ardrone_base_link,-0.00200235546381,0.0134708443745,-0.419447260629,0.907677543225,0.0,0.0,0.0,0.0,0.0,0.0,0.0,0.0,0.0,0.000147074581742,0.00203988138062,-0.00100460196186,0.0,0.0,0.0,0.0,0.0,0.0,0.0,0.0,0.0,0.397543963045,0.256824584305,8.6123770237,0.0,0.0,0.0,0.0,0.0,0.0,0.0,0.0,0.0
1441927237241230697,123,1441927237236061232,ardrone_base_link,-0.00197907142353,0.013479382307,-0.419455240993,0.907673779688,0.0,0.0,0.0,0.0,0.0,0.0,0.0,0.0,0.0,-0.000729659254632,0.00208736770111,-0.00164029655858,0.0,0.0,0.0,0.0,0.0,0.0,0.0,0.0,0.0,0.329932785034,0.256565159559,8.5432264924,0.0,0.0,0.0,0.0,0.0,0.0,0.0,0.0,0.0
1441927237261224859,124,1441927237256313444,ardrone_base_link,-0.00194786777296,0.0134842585763,-0.419463309097,0.907670046274,0.0,0.0,0.0,0.0,0.0,0.0,0.0,0.0,0.0,0.00101184789258,0.00123942462871,0.000218418430154,0.0,0.0,0.0,0.0,0.0,0.0,0.0,0.0,0.0,0.394618698955,0.256043644994,8.54131757021,0.0,0.0,0.0,0.0,0.0,0.0,0.0,0.0,0.0
1441927237281238140,125,1441927237275871874,ardrone_base_link,-0.00194775016504,0.0134842755648,-0.419471225654,0.907666387738,0.0,0.0,0.0,0.0,0.0,0.0,0.0,0.0,0.0,-0.000688137023545,0.00258011647724,-0.00148062457804,0.0,0.0,0.0,0.0,0.0,0.0,0.0,0.0,0.0,0.38678367734,0.188953287899,8.60226581097,0.0,0.0,0.0,0.0,0.0,0.0,0.0,0.0,0.0
1441927237301240302,126,1441927237296319447,ardrone_base_link,-0.00197115942223,0.0134953087427,-0.419494621975,0.907655360424,0.0,0.0,0.0,0.0,0.0,0.0,0.0,0.0,0.0,-0.00121422095609,0.00227941802462,-0.00132775406121,0.0,0.0,0.0,0.0,0.0,0.0,0.0,0.0,0.0,0.396671352535,0.187373447418,8.60440955162,0.0,0.0,0.0,0.0,0.0,0.0,0.0,0.0,0.0
1441927237321411108,127,1441927237316310945,ardrone_base_link,-0.00197115942223,0.0134953087427,-0.419494621975,0.907655360424,0.0,0.0,0.0,0.0,0.0,0.0,0.0,0.0,0.0,-0.000418102016325,0.0017470768339,-0.000551714322112,0.0,0.0,0.0,0.0,0.0,0.0,0.0,0.0,0.0,0.399056921154,0.246676991507,8.61420007944,0.0,0.0,0.0,0.0,0.0,0.0,0.0,0.0,0.0
1441927237341513448,128,1441927237335918317,ardrone_base_link,-0.00196690103268,0.0134837274605,-0.419494840502,0.907655440785,0.0,0.0,0.0,0.0,0.0,0.0,0.0,0.0,0.0,-0.000581197907835,0.00139944393851,0.00049559434683,0.0,0.0,0.0,0.0,0.0,0.0,0.0,0.0,0.0,0.395871976763,0.248946410418,8.61347751617,0.0,0.0,0.0,0.0,0.0,0.0,0.0,0.0,0.0
1441927237361458561,129,1441927237356654570,ardrone_base_link,-0.00195472150997,0.0134684863764,-0.419495176365,0.907655538156,0.0,0.0,0.0,0.0,0.0,0.0,0.0,0.0,0.0,-0.00157676586298,0.00131729946353,-0.000604005385681,0.0,0.0,0.0,0.0,0.0,0.0,0.0,0.0,0.0,0.396406561136,0.259268857539,8.61181684732,0.0,0.0,0.0,0.0,0.0,0.0,0.0,0.0,0.0
1441927237381302066,130,1441927237376257620,ardrone_base_link,-0.00193887964702,0.0134611646705,-0.419495411374,0.907655572135,0.0,0.0,0.0,0.0,0.0,0.0,0.0,0.0,0.0,-4.0735465623e-05,0.00246950608736,4.2745027409e-05,0.0,0.0,0.0,0.0,0.0,0.0,0.0,0.0,0.0,0.396881710738,0.243123975024,8.61270705462,0.0,0.0,0.0,0.0,0.0,0.0,0.0,0.0,0.0
1441927237401298851,131,1441927237396037588,ardrone_base_link,-0.00195826641153,0.013460582909,-0.419503193369,0.907651942461,0.0,0.0,0.0,0.0,0.0,0.0,0.0,0.0,0.0,-0.000710927271468,0.00129527688999,-0.000251768394547,0.0,0.0,0.0,0.0,0.0,0.0,0.0,0.0,0.0,0.381933938712,0.166746058688,8.61339632273,0.0,0.0,0.0,0.0,0.0,0.0,0.0,0.0,0.0
1441927237421348506,132,1441927237416503765,ardrone_base_link,-0.00196300293443,0.0134916823137,-0.419510602767,0.907648045937,0.0,0.0,0.0,0.0,0.0,0.0,0.0,0.0,0.0,-0.000109995948032,0.00105128250707,0.000221655006342,0.0,0.0,0.0,0.0,0.0,0.0,0.0,0.0,0.0,0.340339273214,0.183650943264,8.61311827898,0.0,0.0,0.0,0.0,0.0,0.0,0.0,0.0,0.0
1441927237441528044,133,1441927237436219273,ardrone_base_link,-0.00199397211713,0.0134868425401,-0.419518367699,0.907644461403,0.0,0.0,0.0,0.0,0.0,0.0,0.0,0.0,0.0,-0.000386248698388,0.000956359800372,-0.00211850991082,0.0,0.0,0.0,0.0,0.0,0.0,0.0,0.0,0.0,0.404278966784,0.198502060771,8.61316617727,0.0,0.0,0.0,0.0,0.0,0.0,0.0,0.0,0.0
1441927237461289348,134,1441927237456257150,ardrone_base_link,-0.00198593391992,0.013483198916,-0.419526401711,0.907640819753,0.0,0.0,0.0,0.0,0.0,0.0,0.0,0.0,0.0,-4.10474613466e-05,0.00309749975334,-0.000226471566553,0.0,0.0,0.0,0.0,0.0,0.0,0.0,0.0,0.0,0.400902064145,0.223771330714,8.61281219721,0.0,0.0,0.0,0.0,0.0,0.0,0.0,0.0,0.0
1441927237481298756,135,1441927237477066714,ardrone_base_link,-0.00197801288091,0.013479537682,-0.419526519364,0.907640837049,0.0,0.0,0.0,0.0,0.0,0.0,0.0,0.0,0.0,-0.00118763745914,0.00189828079447,-5.56085716355e-05,0.0,0.0,0.0,0.0,0.0,0.0,0.0,0.0,0.0,0.397314620763,0.264739685878,8.61227655411,0.0,0.0,0.0,0.0,0.0,0.0,0.0,0.0,0.0
1441927237501213148,136,1441927237496219703,ardrone_base_link,-0.00195839203118,0.0134801522023,-0.419534570196,0.9076371492,0.0,0.0,0.0,0.0,0.0,0.0,0.0,0.0,0.0,0.000163202635765,0.0027088686116,-0.000725577128056,0.0,0.0,0.0,0.0,0.0,0.0,0.0,0.0,0.0,0.39779426083,0.248818614706,8.61247749329,0.0,0.0,0.0,0.0,0.0,0.0,0.0,0.0,0.0
1441927237521312431,137,1441927237516446497,ardrone_base_link,-0.00193817475773,0.0134612661805,-0.419542939694,0.907633604239,0.0,0.0,0.0,0.0,0.0,0.0,0.0,0.0,0.0,-0.000509408779673,0.00210851616484,-0.00122416671836,0.0,0.0,0.0,0.0,0.0,0.0,0.0,0.0,0.0,0.396723887324,0.258529737964,8.61235307455,0.0,0.0,0.0,0.0,0.0,0.0,0.0,0.0,0.0
1441927237541512449,138,1441927237538008973,ardrone_base_link,-0.00194975845066,0.0134570072011,-0.419542922708,0.907633650436,0.0,0.0,0.0,0.0,0.0,0.0,0.0,0.0,0.0,-0.00154313071084,0.000455545274237,-0.000122150700327,0.0,0.0,0.0,0.0,0.0,0.0,0.0,0.0,0.0,0.395943167061,0.189275542647,8.61323335171,0.0,0.0,0.0,0.0,0.0,0.0,0.0,0.0,0.0
1441927237561357761,139,1441927237556411746,ardrone_base_link,-0.00196536459054,0.0134643638033,-0.419558520224,0.907626297744,0.0,0.0,0.0,0.0,0.0,0.0,0.0,0.0,0.0,-0.00143661376078,0.0023003118756,-0.00121465228935,0.0,0.0,0.0,0.0,0.0,0.0,0.0,0.0,0.0,0.396008589119,0.237780723348,8.61263520718,0.0,0.0,0.0,0.0,0.0,0.0,0.0,0.0,0.0
1441927237581182824,140,1441927237579315036,ardrone_base_link,-0.00197316711589,0.0134680423742,-0.419566349101,0.907622607226,0.0,0.0,0.0,0.0,0.0,0.0,0.0,0.0,0.0,-0.000299099125569,0.00368498580318,-0.00104203120827,0.0,0.0,0.0,0.0,0.0,0.0,0.0,0.0,0.0,0.396341686696,0.187903486565,8.61324795485,0.0,0.0,0.0,0.0,0.0,0.0,0.0,0.0,0.0
1441927237601400399,141,1441927237596274051,ardrone_base_link,-0.00199681124871,0.0134790440959,-0.419573912504,0.907618895826,0.0,0.0,0.0,0.0,0.0,0.0,0.0,0.0,0.0,-0.00107793648416,0.00069489934606,-0.000103433614545,0.0,0.0,0.0,0.0,0.0,0.0,0.0,0.0,0.0,0.397656224668,0.178620417789,8.61335309744,0.0,0.0,0.0,0.0,0.0,0.0,0.0,0.0,0.0
1441927237621303338,142,1441927237618671663,ardrone_base_link,-0.00202423584505,0.0134821083773,-0.419573660577,0.907618906024,0.0,0.0,0.0,0.0,0.0,0.0,0.0,0.0,0.0,-0.00113786495532,0.0015313290582,-0.000103779838487,0.0,0.0,0.0,0.0,0.0,0.0,0.0,0.0,0.0,0.395784248412,0.182238363475,8.61332914829,0.0,0.0,0.0,0.0,0.0,0.0,0.0,0.0,0.0
1441927237641587203,143,1441927237636529246,ardrone_base_link,-0.00204007659593,0.0134894312306,-0.419573425209,0.907618870557,0.0,0.0,0.0,0.0,0.0,0.0,0.0,0.0,0.0,0.000134481230356,0.00225401994644,-0.000259483466835,0.0,0.0,0.0,0.0,0.0,0.0,0.0,0.0,0.0,0.395212389529,0.210854234546,8.61294654608,0.0,0.0,0.0,0.0,0.0,0.0,0.0,0.0,0.0
1441927237661486781,144,1441927237657467292,ardrone_base_link,-0.00202789840667,0.0134741890985,-0.419573761634,0.907618968734,0.0,0.0,0.0,0.0,0.0,0.0,0.0,0.0,0.0,-0.000942402846799,0.00105577893205,0.000349843462119,0.0,0.0,0.0,0.0,0.0,0.0,0.0,0.0,0.0,0.397839201987,0.263912071288,8.68237862587,0.0,0.0,0.0,0.0,0.0,0.0,0.0,0.0,0.0
1441927237681289054,145,1441927237676514448,ardrone_base_link,-0.00202352313683,0.0134626248758,-0.419581896287,0.907615389575,0.0,0.0,0.0,0.0,0.0,0.0,0.0,0.0,0.0,-0.000369394549365,0.00106507444349,-0.00163477570085,0.0,0.0,0.0,0.0,0.0,0.0,0.0,0.0,0.0,0.396311093122,0.194500052556,8.59956247807,0.0,0.0,0.0,0.0,0.0,0.0,0.0,0.0,0.0
1441927237701379833,146,1441927237697636246,ardrone_base_link,-0.00202695106618,0.0134547409857,-0.41959782934,0.907608132967,0.0,0.0,0.0,0.0,0.0,0.0,0.0,0.0,0.0,-0.000312575949431,0.00178751071896,-0.00044893239693,0.0,0.0,0.0,0.0,0.0,0.0,0.0,0.0,0.0,0.396922453493,0.26949516125,8.61450148821,0.0,0.0,0.0,0.0,0.0,0.0,0.0,0.0,0.0
1441927237721480990,147,1441927237716692902,ardrone_base_link,-0.00201843690933,0.01343157744,-0.419598265605,0.907608293341,0.0,0.0,0.0,0.0,0.0,0.0,0.0,0.0,0.0,-0.00205665318361,0.00118011610972,-0.000725788763536,0.0,0.0,0.0,0.0,0.0,0.0,0.0,0.0,0.0,0.397150298953,0.255244743824,8.61273100376,0.0,0.0,0.0,0.0,0.0,0.0,0.0,0.0,0.0
1441927237741411245,148,1441927237737202219,ardrone_base_link,-0.0020182026123,0.013431612647,-0.419614097609,0.907600973847,0.0,0.0,0.0,0.0,0.0,0.0,0.0,0.0,0.0,0.000112809586479,0.00196116650574,-0.0013439631934,0.0,0.0,0.0,0.0,0.0,0.0,0.0,0.0,0.0,0.396132861823,0.187762657553,8.61384609938,0.0,0.0,0.0,0.0,0.0,0.0,0.0,0.0,0.0
1441927237761343639,149,1441927237756352018,ardrone_base_link,-0.00199858076029,0.0134322264356,-0.419622177545,0.907597272517,0.0,0.0,0.0,0.0,0.0,0.0,0.0,0.0,0.0,0.000791405190184,0.00343183699914,-0.000854820022667,0.0,0.0,0.0,0.0,0.0,0.0,0.0,0.0,0.0,0.39795518741,0.271518152207,8.6119032979,0.0,0.0,0.0,0.0,0.0,0.0,0.0,0.0,0.0
1441927237781282182,150,1441927237778594508,ardrone_base_link,-0.00198628677377,0.0134170000148,-0.419630428298,0.907593709995,0.0,0.0,0.0,0.0,0.0,0.0,0.0,0.0,0.0,-0.00103631802557,0.000194438732314,-0.00114201574152,0.0,0.0,0.0,0.0,0.0,0.0,0.0,0.0,0.0,0.397823029011,0.254024031013,8.6123816967,0.0,0.0,0.0,0.0,0.0,0.0,0.0,0.0,0.0
1441927237801436599,151,1441927237798900394,ardrone_base_link,-0.00197765615867,0.0133938543348,-0.419638778832,0.907590209755,0.0,0.0,0.0,0.0,0.0,0.0,0.0,0.0,0.0,-0.000355107463948,0.00121137223199,-0.000828998413452,0.0,0.0,0.0,0.0,0.0,0.0,0.0,0.0,0.0,0.396049696952,0.255374364927,8.61247749329,0.0,0.0,0.0,0.0,0.0,0.0,0.0,0.0,0.0
1441927237821328566,152,1441927237817927921,ardrone_base_link,-0.00196181543594,0.0133865301226,-0.419639012539,0.907590244134,0.0,0.0,0.0,0.0,0.0,0.0,0.0,0.0,0.0,-0.00133148339696,0.00184741246749,-2.27596607438e-05,0.0,0.0,0.0,0.0,0.0,0.0,0.0,0.0,0.0,0.395942363888,0.258412566036,8.6123291254,0.0,0.0,0.0,0.0,0.0,0.0,0.0,0.0,0.0
1441927237841403249,153,1441927237838441978,ardrone_base_link,-0.00194999818121,0.0133908221252,-0.419654860978,0.907582878335,0.0,0.0,0.0,0.0,0.0,0.0,0.0,0.0,0.0,-0.000543630106832,0.00309000259082,-0.000866143008513,0.0,0.0,0.0,0.0,0.0,0.0,0.0,0.0,0.0,0.397574337572,0.22414248772,8.61281219721,0.0,0.0,0.0,0.0,0.0,0.0,0.0,0.0,0.0
1441927237861253725,154,1441927237857400352,ardrone_base_link,-0.00197364194741,0.0134018259621,-0.419662426057,0.90757916677,0.0,0.0,0.0,0.0,0.0,0.0,0.0,0.0,0.0,-0.00113290338742,0.00289425765147,-0.00201608288957,0.0,0.0,0.0,0.0,0.0,0.0,0.0,0.0,0.0,0.397838070244,0.1893509496,8.61323335171,0.0,0.0,0.0,0.0,0.0,0.0,0.0,0.0,0.0
1441927237881333910,155,1441927237877060236,ardrone_base_link,-0.00198570166578,0.0134170866226,-0.419670007434,0.907575409338,0.0,0.0,0.0,0.0,0.0,0.0,0.0,0.0,0.0,-0.000201577089791,0.00278847840223,0.000386354971258,0.0,0.0,0.0,0.0,0.0,0.0,0.0,0.0,0.0,0.396367643774,0.19589156732,8.61315215826,0.0,0.0,0.0,0.0,0.0,0.0,0.0,0.0,0.0
1441927237901368153,156,1441927237896716758,ardrone_base_link,-0.00197340772322,0.0134018604534,-0.419678287766,0.907571832185,0.0,0.0,0.0,0.0,0.0,0.0,0.0,0.0,0.0,-0.000700030742493,0.0019591427374,-0.00136041705553,0.0,0.0,0.0,0.0,0.0,0.0,0.0,0.0,0.0,0.396580959111,0.253565693274,8.61242492199,0.0,0.0,0.0,0.0,0.0,0.0,0.0,0.0,0.0
1441927237921635319,157,1441927237916567747,ardrone_base_link,-0.00198913069939,0.0134092024822,-0.419685969498,0.907568137197,0.0,0.0,0.0,0.0,0.0,0.0,0.0,0.0,0.0,0.000348325018183,0.00168929898233,-0.000547361068054,0.0,0.0,0.0,0.0,0.0,0.0,0.0,0.0,0.0,0.395530956984,0.180058918148,8.6133431673,0.0,0.0,0.0,0.0,0.0,0.0,0.0,0.0,0.0
1441927237941666257,158,1441927237936911784,ardrone_base_link,-0.00197305705502,0.0134019120842,-0.41970203477,0.907560850747,0.0,0.0,0.0,0.0,0.0,0.0,0.0,0.0,0.0,-0.00152326649411,0.00182061596967,-0.00167648173946,0.0,0.0,0.0,0.0,0.0,0.0,0.0,0.0,0.0,0.397239706665,0.272276274115,8.61217608452,0.0,0.0,0.0,0.0,0.0,0.0,0.0,0.0,0.0
1441927237961390337,159,1441927237956614741,ardrone_base_link,-0.00196880081154,0.0133903295911,-0.419702251908,0.907560930539,0.0,0.0,0.0,0.0,0.0,0.0,0.0,0.0,0.0,-0.00153684900568,0.0014970624456,0.000186673839539,0.0,0.0,0.0,0.0,0.0,0.0,0.0,0.0,0.0,0.396945782006,0.253120881692,8.612434268,0.0,0.0,0.0,0.0,0.0,0.0,0.0,0.0,0.0
1441927237981514730,160,1441927237971532240,ardrone_base_link,-0.00196454460196,0.0133787482566,-0.419702468825,0.907561010248,0.0,0.0,0.0,0.0,0.0,0.0,0.0,0.0,0.0,-0.00143022659547,0.00121268534725,-0.000294688557631,0.0,0.0,0.0,0.0,0.0,0.0,0.0,0.0,0.0,0.396728231758,0.256164321676,8.61240097284,0.0,0.0,0.0,0.0,0.0,0.0,0.0,0.0,0.0
1441927238001410031,161,1441927237996473340,ardrone_base_link,-0.00194066839836,0.0133677775236,-0.419710734538,0.907557400743,0.0,0.0,0.0,0.0,0.0,0.0,0.0,0.0,0.0,-0.000717795834343,0.000848723555438,-0.000692289110115,0.0,0.0,0.0,0.0,0.0,0.0,0.0,0.0,0.0,0.396871013939,0.256872993708,8.61239104271,0.0,0.0,0.0,0.0,0.0,0.0,0.0,0.0,0.0
1441927238021447524,162,1441927238016550137,ardrone_base_link,-0.00192482824826,0.0133604520556,-0.41971096779,0.907557434477,0.0,0.0,0.0,0.0,0.0,0.0,0.0,0.0,0.0,-0.000864947446849,0.00307981495943,-0.000210541071488,0.0,0.0,0.0,0.0,0.0,0.0,0.0,0.0,0.0,0.363143241405,0.256568627805,8.61225260496,0.0,0.0,0.0,0.0,0.0,0.0,0.0,0.0,0.0
1441927238041305920,163,1441927238031850611,ardrone_base_link,-0.00190520831098,0.0133610621775,-0.419719016883,0.90755374445,0.0,0.0,0.0,0.0,0.0,0.0,0.0,0.0,0.0,0.000280783976525,0.00235725384829,-0.000405235684427,0.0,0.0,0.0,0.0,0.0,0.0,0.0,0.0,0.0,0.38543047756,0.257873637229,8.68124016523,0.0,0.0,0.0,0.0,0.0,0.0,0.0,0.0,0.0
1441927238061201926,164,1441927238058902107,ardrone_base_link,-0.00188948469408,0.0133537200855,-0.419711334443,0.907557438263,0.0,0.0,0.0,0.0,0.0,0.0,0.0,0.0,0.0,-0.000738373174868,0.00165074036318,0.000880615299357,0.0,0.0,0.0,0.0,0.0,0.0,0.0,0.0,0.0,0.414338520914,0.256702045724,8.59883465767,0.0,0.0,0.0,0.0,0.0,0.0,0.0,0.0,0.0
1441927238081161498,165,1441927238072876159,ardrone_base_link,-0.00188156485482,0.0133500574559,-0.419711450959,0.907557454718,0.0,0.0,0.0,0.0,0.0,0.0,0.0,0.0,0.0,-0.00068246051133,0.00233912042618,-0.000537280684815,0.0,0.0,0.0,0.0,0.0,0.0,0.0,0.0,0.0,0.390237903595,0.257991776615,8.61484144926,0.0,0.0,0.0,0.0,0.0,0.0,0.0,0.0,0.0
1441927238101222489,166,1441927238097470987,ardrone_base_link,-0.00186146858621,0.0133311505793,-0.419711899505,0.907557566644,0.0,0.0,0.0,0.0,0.0,0.0,0.0,0.0,0.0,0.000341910642604,0.0023149974924,0.000133340885722,0.0,0.0,0.0,0.0,0.0,0.0,0.0,0.0,0.0,0.394840593636,0.257083278894,8.61268310547,0.0,0.0,0.0,0.0,0.0,0.0,0.0,0.0,0.0
1441927238121314621,167,1441927238117451345,ardrone_base_link,-0.00183759288794,0.0133201787003,-0.419720163942,0.907553954359,0.0,0.0,0.0,0.0,0.0,0.0,0.0,0.0,0.0,-0.00107672843893,0.00209576172992,-0.00150248447509,0.0,0.0,0.0,0.0,0.0,0.0,0.0,0.0,0.0,0.397329041362,0.25636067912,8.61297516823,0.0,0.0,0.0,0.0,0.0,0.0,0.0,0.0,0.0
1441927238141403386,168,1441927238136788580,ardrone_base_link,-0.00182967260701,0.0133165157754,-0.419720280172,0.907553970361,0.0,0.0,0.0,0.0,0.0,0.0,0.0,0.0,0.0,-0.000458807093889,0.00179666286443,-4.45866015005e-05,0.0,0.0,0.0,0.0,0.0,0.0,0.0,0.0,0.0,0.397784841806,0.257283560932,8.61208963394,0.0,0.0,0.0,0.0,0.0,0.0,0.0,0.0,0.0
1441927238161226277,169,1441927238156766121,ardrone_base_link,-0.00181726474664,0.0133013024397,-0.419736472542,0.907546729662,0.0,0.0,0.0,0.0,0.0,0.0,0.0,0.0,0.0,-0.00203499198335,0.00205354438519,-0.00142656357867,0.0,0.0,0.0,0.0,0.0,0.0,0.0,0.0,0.0,0.397130438685,0.258043398708,8.61236709356,0.0,0.0,0.0,0.0,0.0,0.0,0.0,0.0,0.0
1441927238181305850,170,1441927238176671455,ardrone_base_link,-0.00180922902058,0.013297655371,-0.419744504082,0.907543084567,0.0,0.0,0.0,0.0,0.0,0.0,0.0,0.0,0.0,-0.000300749784789,0.00253227034393,-0.000510596669144,0.0,0.0,0.0,0.0,0.0,0.0,0.0,0.0,0.0,0.396729874611,0.25704658851,8.61241031885,0.0,0.0,0.0,0.0,0.0,0.0,0.0,0.0,0.0
1441927238221321670,171,1441927238217128607,ardrone_base_link,-0.00177684271481,0.0132635178043,-0.419753195918,0.907539628028,0.0,0.0,0.0,0.0,0.0,0.0,0.0,0.0,0.0,-0.0008102832701,0.000692219020085,-0.00139275586721,0.0,0.0,0.0,0.0,0.0,0.0,0.0,0.0,0.0,0.396424632519,0.255939725414,8.61238636971,0.0,0.0,0.0,0.0,0.0,0.0,0.0,0.0,0.0
1441927238241518193,172,1441927238237280230,ardrone_base_link,-0.00177247194618,0.0132519507063,-0.419761325238,0.907536045554,0.0,0.0,0.0,0.0,0.0,0.0,0.0,0.0,0.0,-0.00184867694884,0.00139829050888,-0.000855980929427,0.0,0.0,0.0,0.0,0.0,0.0,0.0,0.0,0.0,0.396994556487,0.257898170501,8.61238636971,0.0,0.0,0.0,0.0,0.0,0.0,0.0,0.0,0.0
1441927238261358387,173,1441927238256925841,ardrone_base_link,-0.00175651665098,0.0132446396759,-0.419769471857,0.907532415215,0.0,0.0,0.0,0.0,0.0,0.0,0.0,0.0,0.0,-0.000315501948114,0.0017164018477,-0.000449506088378,0.0,0.0,0.0,0.0,0.0,0.0,0.0,0.0,0.0,0.396949578822,0.257986081392,8.6123816967,0.0,0.0,0.0,0.0,0.0,0.0,0.0,0.0,0.0
1441927238281237337,174,1441927238277356974,ardrone_base_link,-0.00174434160485,0.0132293948417,-0.419769800806,0.907532508903,0.0,0.0,0.0,0.0,0.0,0.0,0.0,0.0,0.0,-1.67218964046e-06,0.00192923380012,0.000258838059893,0.0,0.0,0.0,0.0,0.0,0.0,0.0,0.0,0.0,0.397746362537,0.256708051264,8.6123816967,0.0,0.0,0.0,0.0,0.0,0.0,0.0,0.0,0.0
1441927238301361103,175,1441927238297487588,ardrone_base_link,-0.00172838656812,0.013222083418,-0.419777947,0.907528877999,0.0,0.0,0.0,0.0,0.0,0.0,0.0,0.0,0.0,-0.000481268282774,0.00264426094823,-0.00127126812884,0.0,0.0,0.0,0.0,0.0,0.0,0.0,0.0,0.0,0.397061840445,0.256886063516,8.6123816967,0.0,0.0,0.0,0.0,0.0,0.0,0.0,0.0,0.0
1441927238321316636,176,1441927238316929105,ardrone_base_link,-0.00170451257224,0.0132111086493,-0.419786208331,0.907525261654,0.0,0.0,0.0,0.0,0.0,0.0,0.0,0.0,0.0,7.11055471854e-05,0.00227818397196,-0.00175781829356,0.0,0.0,0.0,0.0,0.0,0.0,0.0,0.0,0.0,0.397373982519,0.25695239827,8.6123816967,0.0,0.0,0.0,0.0,0.0,0.0,0.0,0.0,0.0
1441927238341048731,177,1441927238336929846,ardrone_base_link,-0.0016884422202,0.0132038113749,-0.419802299616,0.907517954514,0.0,0.0,0.0,0.0,0.0,0.0,0.0,0.0,0.0,-0.00146558838105,0.00108898060531,-0.000221416827026,0.0,0.0,0.0,0.0,0.0,0.0,0.0,0.0,0.0,0.363713019341,0.257018860802,8.61225727797,0.0,0.0,0.0,0.0,0.0,0.0,0.0,0.0,0.0
1441927238361300073,178,1441927238357604551,ardrone_base_link,-0.00168584245048,0.0132507481414,-0.419809496424,0.907513946075,0.0,0.0,0.0,0.0,0.0,0.0,0.0,0.0,0.0,-0.000225533153376,0.00139348394528,-0.000817083758521,0.0,0.0,0.0,0.0,0.0,0.0,0.0,0.0,0.0,0.312912280113,0.174007213488,8.59781535864,0.0,0.0,0.0,0.0,0.0,0.0,0.0,0.0,0.0
1441927238381330257,179,1441927238377003917,ardrone_base_link,-0.00170652622638,0.0132891582028,-0.419808739689,0.907513695832,0.0,0.0,0.0,0.0,0.0,0.0,0.0,0.0,0.0,0.00011136755563,0.00224351788519,4.09721413844e-05,0.0,0.0,0.0,0.0,0.0,0.0,0.0,0.0,0.0,0.381233243644,0.195489798486,8.52213839293,0.0,0.0,0.0,0.0,0.0,0.0,0.0,0.0,0.0
1441927238401209233,180,1441927238400161914,ardrone_base_link,-0.00169009737026,0.0132623300244,-0.419809283036,0.90751386769,0.0,0.0,0.0,0.0,0.0,0.0,0.0,0.0,0.0,-8.52975104182e-06,0.000542606226731,-0.000211556027789,0.0,0.0,0.0,0.0,0.0,0.0,0.0,0.0,0.0,0.391751372814,0.27033980675,8.62235388756,0.0,0.0,0.0,0.0,0.0,0.0,0.0,0.0,0.0
1441927238421320844,181,1441927238407621663,ardrone_base_link,-0.00168217791122,0.0132586665401,-0.419809398754,0.907513882404,0.0,0.0,0.0,0.0,0.0,0.0,0.0,0.0,0.0,-0.000714801468623,0.00118054081109,-7.89519570067e-05,0.0,0.0,0.0,0.0,0.0,0.0,0.0,0.0,0.0,0.393567893654,0.249952639639,8.61675037146,0.0,0.0,0.0,0.0,0.0,0.0,0.0,0.0,0.0
1441927238441308672,182,1441927238429064041,ardrone_base_link,-0.00167414237165,0.0132550174385,-0.419817429642,0.907510235495,0.0,0.0,0.0,0.0,0.0,0.0,0.0,0.0,0.0,-0.00010562175799,0.0025027706336,-0.000670631615907,0.0,0.0,0.0,0.0,0.0,0.0,0.0,0.0,0.0,0.397583135962,0.251923844218,8.61099381447,0.0,0.0,0.0,0.0,0.0,0.0,0.0,0.0,0.0
1441927238461261392,183,1441927238454709716,ardrone_base_link,-0.00166185264797,0.0132397864523,-0.419825673546,0.907506666715,0.0,0.0,0.0,0.0,0.0,0.0,0.0,0.0,0.0,-0.000351846457028,0.00121206272932,-0.000298377581868,0.0,0.0,0.0,0.0,0.0,0.0,0.0,0.0,0.0,0.398273170739,0.257406501099,8.61142957211,0.0,0.0,0.0,0.0,0.0,0.0,0.0,0.0,0.0
1441927238481211551,184,1441927238468022464,ardrone_base_link,-0.00163797860717,0.0132288096355,-0.419833935154,0.907503048212,0.0,0.0,0.0,0.0,0.0,0.0,0.0,0.0,0.0,-0.00193293543796,0.0024329560222,-0.000583539487004,0.0,0.0,0.0,0.0,0.0,0.0,0.0,0.0,0.0,0.3969406344,0.256773564592,8.61248216629,0.0,0.0,0.0,0.0,0.0,0.0,0.0,0.0,0.0
1441927238501363234,185,1441927238497204460,ardrone_base_link,-0.00162923943977,0.0132056722017,-0.419850220519,0.907495866729,0.0,0.0,0.0,0.0,0.0,0.0,0.0,0.0,0.0,-0.000541768169733,0.00282424304293,-0.00105634049753,0.0,0.0,0.0,0.0,0.0,0.0,0.0,0.0,0.0,0.381564004719,0.258044165373,8.61218075752,0.0,0.0,0.0,0.0,0.0,0.0,0.0,0.0,0.0
1441927238521418504,186,1441927238516862534,ardrone_base_link,-0.00160228953105,0.0132221149071,-0.419858075106,0.90749204135,0.0,0.0,0.0,0.0,0.0,0.0,0.0,0.0,0.0,-0.000495151960406,0.00182677530987,-0.0010232103447,0.0,0.0,0.0,0.0,0.0,0.0,0.0,0.0,0.0,0.340746445209,0.257110422477,8.61221405268,0.0,0.0,0.0,0.0,0.0,0.0,0.0,0.0,0.0
1441927238541373728,187,1441927238537593348,ardrone_base_link,-0.00158988556379,0.0132068966045,-0.419874232631,0.907484809194,0.0,0.0,0.0,0.0,0.0,0.0,0.0,0.0,0.0,0.000281409812875,0.00116532620311,-0.00118363829628,0.0,0.0,0.0,0.0,0.0,0.0,0.0,0.0,0.0,0.406475789845,0.256461988389,8.61240097284,0.0,0.0,0.0,0.0,0.0,0.0,0.0,0.0,0.0
1441927238561330017,188,1441927238557527312,ardrone_base_link,-0.00156601238213,0.0131959178887,-0.419882493187,0.907481188384,0.0,0.0,0.0,0.0,0.0,0.0,0.0,0.0,0.0,-0.00032437022246,0.00175480598271,-0.00141527557282,0.0,0.0,0.0,0.0,0.0,0.0,0.0,0.0,0.0,0.401869704574,0.257045091689,8.61238636971,0.0,0.0,0.0,0.0,0.0,0.0,0.0,0.0,0.0
1441927238581030019,189,1441927238577052181,ardrone_base_link,-0.00157748256207,0.0131916769207,-0.419890389607,0.907477576541,0.0,0.0,0.0,0.0,0.0,0.0,0.0,0.0,0.0,5.76023013971e-05,0.00100747961923,-0.000163907193361,0.0,0.0,0.0,0.0,0.0,0.0,0.0,0.0,0.0,0.394920910895,0.172983204946,8.61343429089,0.0,0.0,0.0,0.0,0.0,0.0,0.0,0.0,0.0
1441927238601272894,190,1441927238597651919,ardrone_base_link,-0.00159687145566,0.0131911001951,-0.41989817098,0.907473950527,0.0,0.0,0.0,0.0,0.0,0.0,0.0,0.0,0.0,-0.000611270691937,0.00176200783083,-0.00158214146921,0.0,0.0,0.0,0.0,0.0,0.0,0.0,0.0,0.0,0.396734365076,0.249675289541,8.61248683929,0.0,0.0,0.0,0.0,0.0,0.0,0.0,0.0,0.0
1441927238621262479,191,1441927238619030774,ardrone_base_link,-0.0015766636171,0.0131722029354,-0.419906557781,0.907470379646,0.0,0.0,0.0,0.0,0.0,0.0,0.0,0.0,0.0,0.000194753178426,0.00187653441986,0.000231252057706,0.0,0.0,0.0,0.0,0.0,0.0,0.0,0.0,0.0,0.3969829835,0.251039113104,8.61245354414,0.0,0.0,0.0,0.0,0.0,0.0,0.0,0.0,0.0
1441927238641150593,192,1441927238639013330,ardrone_base_link,-0.0015766636171,0.0131722029354,-0.419906557781,0.907470379646,0.0,0.0,0.0,0.0,0.0,0.0,0.0,0.0,0.0,-0.000309880604164,0.00158673334146,-0.000668701994466,0.0,0.0,0.0,0.0,0.0,0.0,0.0,0.0,0.0,0.396426457912,0.189653909951,8.6132193327,0.0,0.0,0.0,0.0,0.0,0.0,0.0,0.0,0.0
1441927238661304151,193,1441927238657967303,ardrone_base_link,-0.00160822539201,0.0131868745039,-0.419914012542,0.907466661659,0.0,0.0,0.0,0.0,0.0,0.0,0.0,0.0,0.0,-0.00107136336571,0.00155991460729,-0.000557648958093,0.0,0.0,0.0,0.0,0.0,0.0,0.0,0.0,0.0,0.381999032199,0.203814463317,8.61300846338,0.0,0.0,0.0,0.0,0.0,0.0,0.0,0.0,0.0
1441927238681244172,194,1441927238672186974,ardrone_base_link,-0.0015891939896,0.0132069798399,-0.419921752008,0.907462821462,0.0,0.0,0.0,0.0,0.0,0.0,0.0,0.0,0.0,0.000457377172751,0.00196092021536,-0.00114701124912,0.0,0.0,0.0,0.0,0.0,0.0,0.0,0.0,0.0,0.313370672613,0.259740173817,8.61204173565,0.0,0.0,0.0,0.0,0.0,0.0,0.0,0.0,0.0
1441927238701243274,195,1441927238698580208,ardrone_base_link,-0.00156602452754,0.0132154877757,-0.419921788983,0.90746272077,0.0,0.0,0.0,0.0,0.0,0.0,0.0,0.0,0.0,-0.000765328968206,0.00202839168713,-0.000609699387894,0.0,0.0,0.0,0.0,0.0,0.0,0.0,0.0,0.0,0.347663477063,0.264279741794,8.61211358309,0.0,0.0,0.0,0.0,0.0,0.0,0.0,0.0,0.0
1441927238721329439,196,1441927238717560719,ardrone_base_link,-0.00154570275369,0.0131966022124,-0.419938060836,0.907455500592,0.0,0.0,0.0,0.0,0.0,0.0,0.0,0.0,0.0,0.000762090457715,0.0024891281749,-0.000579948055656,0.0,0.0,0.0,0.0,0.0,0.0,0.0,0.0,0.0,0.393320918083,0.258285244927,8.61236242056,0.0,0.0,0.0,0.0,0.0,0.0,0.0,0.0,0.0
1441927238741305737,197,1441927238728205853,ardrone_base_link,-0.001537783804,0.0131929376043,-0.41993817598,0.907455514046,0.0,0.0,0.0,0.0,0.0,0.0,0.0,0.0,0.0,0.00123049211601,0.00251883256372,-0.00109075567759,0.0,0.0,0.0,0.0,0.0,0.0,0.0,0.0,0.0,0.396897372603,0.243346490338,8.61253941059,0.0,0.0,0.0,0.0,0.0,0.0,0.0,0.0,0.0
1441927238761293234,198,1441927238759984371,ardrone_base_link,-0.00156131032675,0.0132039586627,-0.419953659789,0.907448148059,0.0,0.0,0.0,0.0,0.0,0.0,0.0,0.0,0.0,-0.00192987189247,0.00138216238984,-0.00117472515911,0.0,0.0,0.0,0.0,0.0,0.0,0.0,0.0,0.0,0.398332057893,0.166133840382,8.61351548433,0.0,0.0,0.0,0.0,0.0,0.0,0.0,0.0,0.0
1441927238781321453,199,1441927238767711765,ardrone_base_link,-0.00156911404936,0.0132076373628,-0.419961489371,0.907444457607,0.0,0.0,0.0,0.0,0.0,0.0,0.0,0.0,0.0,-0.00108031070265,0.00247300148627,-0.000483754105664,0.0,0.0,0.0,0.0,0.0,0.0,0.0,0.0,0.0,0.396134869754,0.251964751258,8.61245354414,0.0,0.0,0.0,0.0,0.0,0.0,0.0,0.0,0.0
1441927238801236987,200,1441927238783345842,ardrone_base_link,-0.00157277989375,0.01319971956,-0.419961586084,0.90744452171,0.0,0.0,0.0,0.0,0.0,0.0,0.0,0.0,0.0,-0.00165528464182,0.0017818655457,-0.000639207225548,0.0,0.0,0.0,0.0,0.0,0.0,0.0,0.0,0.0,0.396394550055,0.264724863693,8.61229057312,0.0,0.0,0.0,0.0,0.0,0.0,0.0,0.0,0.0
1441927238821284980,201,1441927238817781064,ardrone_base_link,-0.00155257417814,0.0131808196899,-0.419969942587,0.907440963826,0.0,0.0,0.0,0.0,0.0,0.0,0.0,0.0,0.0,0.000603221456653,0.00273244877026,0.000458617467198,0.0,0.0,0.0,0.0,0.0,0.0,0.0,0.0,0.0,0.396625827253,0.242352892831,8.61255401373,0.0,0.0,0.0,0.0,0.0,0.0,0.0,0.0,0.0
1441927238841244113,202,1441927238827210037,ardrone_base_link,-0.00154890782945,0.0131887384081,-0.419969846101,0.90744089969,0.0,0.0,0.0,0.0,0.0,0.0,0.0,0.0,0.0,0.0010163815732,0.00246785123444,0.00109856226353,0.0,0.0,0.0,0.0,0.0,0.0,0.0,0.0,0.0,0.396548649669,0.223647313565,8.61279292107,0.0,0.0,0.0,0.0,0.0,0.0,0.0,0.0,0.0
1441927238861260603,203,1441927238847655159,ardrone_base_link,-0.00155257417814,0.0131808196899,-0.419969942587,0.907440963826,0.0,0.0,0.0,0.0,0.0,0.0,0.0,0.0,0.0,-0.000937458118711,0.0020307241637,-0.000631460001571,0.0,0.0,0.0,0.0,0.0,0.0,0.0,0.0,0.0,0.397134272009,0.216061804816,8.61288404465,0.0,0.0,0.0,0.0,0.0,0.0,0.0,0.0,0.0
1441927238881289297,204,1441927238877580169,ardrone_base_link,-0.00156392950138,0.0131765931395,-0.419985753157,0.907433688301,0.0,0.0,0.0,0.0,0.0,0.0,0.0,0.0,0.0,-0.000876422966285,0.000898911137881,-0.00192417535453,0.0,0.0,0.0,0.0,0.0,0.0,0.0,0.0,0.0,0.396857067943,0.232955828309,8.6815988183,0.0,0.0,0.0,0.0,0.0,0.0,0.0,0.0,0.0
1441927238901237437,205,1441927238887899599,ardrone_base_link,-0.00155175803155,0.0131613453767,-0.419986079408,0.907433779479,0.0,0.0,0.0,0.0,0.0,0.0,0.0,0.0,0.0,-0.00117483165954,0.00137352428127,6.29359868902e-05,0.0,0.0,0.0,0.0,0.0,0.0,0.0,0.0,0.0,0.396975973994,0.265695443004,8.66802315712,0.0,0.0,0.0,0.0,0.0,0.0,0.0,0.0,0.0
1441927238921281811,206,1441927238919210033,ardrone_base_link,-0.00153213919468,0.0131619461814,-0.419994127348,0.907430079243,0.0,0.0,0.0,0.0,0.0,0.0,0.0,0.0,0.0,-0.000428189161496,0.00337846194579,0.000415642265886,0.0,0.0,0.0,0.0,0.0,0.0,0.0,0.0,0.0,0.397094697505,0.260819163173,8.60567301512,0.0,0.0,0.0,0.0,0.0,0.0,0.0,0.0,0.0
1441927238941679226,207,1441927238937349748,ardrone_base_link,-0.00153639183975,0.0131735301213,-0.41999391615,0.907430001709,0.0,0.0,0.0,0.0,0.0,0.0,0.0,0.0,0.0,-0.000913642462751,0.0029197818657,-0.000513877831824,0.0,0.0,0.0,0.0,0.0,0.0,0.0,0.0,0.0,0.39811629653,0.204207378998,8.60855801105,0.0,0.0,0.0,0.0,0.0,0.0,0.0,0.0,0.0
1441927238961220763,208,1441927238957507519,ardrone_base_link,-0.00152410570206,0.0131582943775,-0.420002156654,0.907426429413,0.0,0.0,0.0,0.0,0.0,0.0,0.0,0.0,0.0,-0.00058550597398,0.000624232926241,-0.000238090289413,0.0,0.0,0.0,0.0,0.0,0.0,0.0,0.0,0.0,0.397353392094,0.264986460656,8.614123559,0.0,0.0,0.0,0.0,0.0,0.0,0.0,0.0,0.0
1441927238981505009,209,1441927238973246238,ardrone_base_link,-0.00152765719165,0.0131503900502,-0.420010167223,0.907422830291,0.0,0.0,0.0,0.0,0.0,0.0,0.0,0.0,0.0,-0.00129818426085,0.00142645226686,-0.00142889189405,0.0,0.0,0.0,0.0,0.0,0.0,0.0,0.0,0.0,0.395513688773,0.253200614825,8.61287937164,0.0,0.0,0.0,0.0,0.0,0.0,0.0,0.0,0.0
1441927239001300467,210,1441927238997736043,ardrone_base_link,-0.00154716168502,0.0131498021774,-0.420010033892,0.907422867479,0.0,0.0,0.0,0.0,0.0,0.0,0.0,0.0,0.0,-0.000542134972057,0.00173985209924,-0.000791911489872,0.0,0.0,0.0,0.0,0.0,0.0,0.0,0.0,0.0,0.395673520118,0.166491726786,8.61369305849,0.0,0.0,0.0,0.0,0.0,0.0,0.0,0.0,0.0
1441927239021400401,211,1441927239018879961,ardrone_base_link,-0.00156288382175,0.0131571463306,-0.420017748932,0.907419163054,0.0,0.0,0.0,0.0,0.0,0.0,0.0,0.0,0.0,0.000513715220353,0.000990739545303,-0.00070551154878,0.0,0.0,0.0,0.0,0.0,0.0,0.0,0.0,0.0,0.39744816646,0.197961708158,8.61307563782,0.0,0.0,0.0,0.0,0.0,0.0,0.0,0.0,0.0
1441927239041508881,212,1441927239037432180,ardrone_base_link,-0.00154693186552,0.0131498292151,-0.420025892869,0.907415526819,0.0,0.0,0.0,0.0,0.0,0.0,0.0,0.0,0.0,-0.000329384455411,0.00270168899984,0.000130584227933,0.0,0.0,0.0,0.0,0.0,0.0,0.0,0.0,0.0,0.397120399028,0.268753011525,8.61220937967,0.0,0.0,0.0,0.0,0.0,0.0,0.0,0.0,0.0
1441927239061071012,213,1441927239057567286,ardrone_base_link,-0.0015310941917,0.0131424982465,-0.420026122317,0.907415553681,0.0,0.0,0.0,0.0,0.0,0.0,0.0,0.0,0.0,0.00135969326869,0.00145564834042,-0.000979866943166,0.0,0.0,0.0,0.0,0.0,0.0,0.0,0.0,0.0,0.396866706014,0.25392777808,8.61245354414,0.0,0.0,0.0,0.0,0.0,0.0,0.0,0.0,0.0
1441927239081316202,214,1441927239077869500,ardrone_base_link,-0.00150722338489,0.0131315150415,-0.420034380583,0.907411930007,0.0,0.0,0.0,0.0,0.0,0.0,0.0,0.0,0.0,-0.000858493377426,0.00276658924682,-0.000615352558439,0.0,0.0,0.0,0.0,0.0,0.0,0.0,0.0,0.0,0.397506213933,0.256829366833,8.61237235069,0.0,0.0,0.0,0.0,0.0,0.0,0.0,0.0,0.0
1441927239101111909,215,1441927239097769879,ardrone_base_link,-0.00150344188729,0.013139446626,-0.420042198978,0.907408202345,0.0,0.0,0.0,0.0,0.0,0.0,0.0,0.0,0.0,-0.000270022669944,0.0030729500376,-0.000190201682714,0.0,0.0,0.0,0.0,0.0,0.0,0.0,0.0,0.0,0.396669308096,0.18957227841,8.61324269772,0.0,0.0,0.0,0.0,0.0,0.0,0.0,0.0,0.0
1441927239121297151,216,1441927239117905248,ardrone_base_link,-0.00152708327299,0.0131504567086,-0.420049769114,0.907404499092,0.0,0.0,0.0,0.0,0.0,0.0,0.0,0.0,0.0,-0.000659930142675,0.00239876561138,-0.00148450722761,0.0,0.0,0.0,0.0,0.0,0.0,0.0,0.0,0.0,0.396762804687,0.221719608083,8.61283614635,0.0,0.0,0.0,0.0,0.0,0.0,0.0,0.0,0.0
1441927239141506450,217,1441927239137464453,ardrone_base_link,-0.00150321268619,0.0131394728496,-0.420058027492,0.907400875107,0.0,0.0,0.0,0.0,0.0,0.0,0.0,0.0,0.0,-0.000153233645609,0.000787834174671,-0.000880611138167,0.0,0.0,0.0,0.0,0.0,0.0,0.0,0.0,0.0,0.396881017089,0.2615247868,8.61231919527,0.0,0.0,0.0,0.0,0.0,0.0,0.0,0.0,0.0
1441927239161213827,218,1441927239157771877,ardrone_base_link,-0.00150687979059,0.0131315544743,-0.420058123404,0.90740093925,0.0,0.0,0.0,0.0,0.0,0.0,0.0,0.0,0.0,-0.000376188796002,0.00289841415931,-7.67980214621e-05,0.0,0.0,0.0,0.0,0.0,0.0,0.0,0.0,0.0,0.396710087359,0.260355531797,8.6123291254,0.0,0.0,0.0,0.0,0.0,0.0,0.0,0.0,0.0
1441927239181063877,219,1441927239177837327,ardrone_base_link,-0.00150309764806,0.0131394860099,-0.420065971908,0.9073971974,0.0,0.0,0.0,0.0,0.0,0.0,0.0,0.0,0.0,-0.00131582692271,0.00260530883663,-0.000815888391913,0.0,0.0,0.0,0.0,0.0,0.0,0.0,0.0,0.0,0.39631755501,0.241012616828,8.63139322996,0.0,0.0,0.0,0.0,0.0,0.0,0.0,0.0,0.0
1441927239201181251,220,1441927239198965122,ardrone_base_link,-0.00150665029001,0.0131315808081,-0.420073981998,0.90739359775,0.0,0.0,0.0,0.0,0.0,0.0,0.0,0.0,0.0,-0.00107799357047,0.00161968735895,0.000463540901701,0.0,0.0,0.0,0.0,0.0,0.0,0.0,0.0,0.0,0.396997002512,0.18389724344,8.62181824446,0.0,0.0,0.0,0.0,0.0,0.0,0.0,0.0,0.0
1441927239221072386,221,1441927239217605160,ardrone_base_link,-0.00151882033671,0.0131468309216,-0.420073656689,0.907393507238,0.0,0.0,0.0,0.0,0.0,0.0,0.0,0.0,0.0,-0.000956385287656,0.00230780487692,-0.000108625445749,0.0,0.0,0.0,0.0,0.0,0.0,0.0,0.0,0.0,0.396740133315,0.206391862407,8.64343731403,0.0,0.0,0.0,0.0,0.0,0.0,0.0,0.0,0.0
1441927239241478931,222,1441927239237500568,ardrone_base_link,-0.00153029136196,0.0131425917508,-0.420081552213,0.907389894136,0.0,0.0,0.0,0.0,0.0,0.0,0.0,0.0,0.0,0.000737464280127,0.00139602968279,-0.00115961002956,0.0,0.0,0.0,0.0,0.0,0.0,0.0,0.0,0.0,0.3972701177,0.269198516756,8.61480289698,0.0,0.0,0.0,0.0,0.0,0.0,0.0,0.0,0.0
1441927239261155637,223,1441927239257908336,ardrone_base_link,-0.00151800698771,0.0131273559341,-0.420089791581,0.907386320808,0.0,0.0,0.0,0.0,0.0,0.0,0.0,0.0,0.0,-0.00136494794035,0.00102504438883,-0.000419590616732,0.0,0.0,0.0,0.0,0.0,0.0,0.0,0.0,0.0,0.396331464499,0.251520176977,8.61193659306,0.0,0.0,0.0,0.0,0.0,0.0,0.0,0.0,0.0
1441927239282280175,224,1441927239277934282,ardrone_base_link,-0.00150216982364,0.0131200238502,-0.420090020637,0.907386347165,0.0,0.0,0.0,0.0,0.0,0.0,0.0,0.0,0.0,-0.000435467471468,0.002585819387,0.000184344938993,0.0,0.0,0.0,0.0,0.0,0.0,0.0,0.0,0.0,0.396327631176,0.255967416614,8.61076425314,0.0,0.0,0.0,0.0,0.0,0.0,0.0,0.0,0.0
1441927239301380931,225,1441927239297619939,ardrone_base_link,-0.00148633313109,0.0131126919808,-0.420090249558,0.907386373244,0.0,0.0,0.0,0.0,0.0,0.0,0.0,0.0,0.0,-0.00111714743474,0.00305905062547,-0.000469005843454,0.0,0.0,0.0,0.0,0.0,0.0,0.0,0.0,0.0,0.398189202696,0.258252990246,8.61298918724,0.0,0.0,0.0,0.0,0.0,0.0,0.0,0.0,0.0
1441927239321453749,226,1441927239317906471,ardrone_base_link,-0.00149838838042,0.0131279542246,-0.420097838917,0.907382619068,0.0,0.0,0.0,0.0,0.0,0.0,0.0,0.0,0.0,-0.000281572099252,0.00256805865139,-0.000412307690442,0.0,0.0,0.0,0.0,0.0,0.0,0.0,0.0,0.0,0.397009597719,0.190993437544,8.68215373755,0.0,0.0,0.0,0.0,0.0,0.0,0.0,0.0,0.0
1441927239341350422,227,1441927239338210567,ardrone_base_link,-0.00152214379276,0.0131389524444,-0.420097495081,0.907382579529,0.0,0.0,0.0,0.0,0.0,0.0,0.0,0.0,0.0,-0.00109018130344,0.0021928689309,-0.000567415854245,0.0,0.0,0.0,0.0,0.0,0.0,0.0,0.0,0.0,0.396534995735,0.188691636175,8.6689040184,0.0,0.0,0.0,0.0,0.0,0.0,0.0,0.0,0.0
1441927239361340810,228,1441927239357645842,ardrone_base_link,-0.00154223175128,0.0131578688662,-0.420097054697,0.907382475389,0.0,0.0,0.0,0.0,0.0,0.0,0.0,0.0,0.0,-0.0001040559724,0.00266375533928,7.10850582052e-05,0.0,0.0,0.0,0.0,0.0,0.0,0.0,0.0,0.0,0.396419448406,0.17827642262,8.61878429651,0.0,0.0,0.0,0.0,0.0,0.0,0.0,0.0,0.0
1441927239381085674,229,1441927239378534534,ardrone_base_link,-0.00156587183077,0.0131688805048,-0.420104624133,0.907378770643,0.0,0.0,0.0,0.0,0.0,0.0,0.0,0.0,0.0,7.41681986699e-05,0.00245604386017,0.000585059036255,0.0,0.0,0.0,0.0,0.0,0.0,0.0,0.0,0.0,0.396395097673,0.180022026971,8.70971628428,0.0,0.0,0.0,0.0,0.0,0.0,0.0,0.0,0.0
1441927239401337405,230,1441927239398626689,ardrone_base_link,-0.00159329466751,0.0131719607283,-0.420104375901,0.907378793124,0.0,0.0,0.0,0.0,0.0,0.0,0.0,0.0,0.0,-8.09652248518e-05,0.000479030895881,-0.000103285071469,0.0,0.0,0.0,0.0,0.0,0.0,0.0,0.0,0.0,0.395920787752,0.182042845711,8.68772395849,0.0,0.0,0.0,0.0,0.0,0.0,0.0,0.0,0.0
1441927239421144465,231,1441927239417742584,ardrone_base_link,-0.00159259628492,0.013152473151,-0.420112597955,0.907375270286,0.0,0.0,0.0,0.0,0.0,0.0,0.0,0.0,0.0,-0.000751912123985,0.000864314881076,-0.000978466572973,0.0,0.0,0.0,0.0,0.0,0.0,0.0,0.0,0.0,0.396352200955,0.263715586066,8.63814513683,0.0,0.0,0.0,0.0,0.0,0.0,0.0,0.0,0.0
1441927239441726868,232,1441927239438268461,ardrone_base_link,-0.00157675931371,0.013145140669,-0.420112827449,0.907375297944,0.0,0.0,0.0,0.0,0.0,0.0,0.0,0.0,0.0,-0.000338926679857,0.00183324842973,-0.000473482665326,0.0,0.0,0.0,0.0,0.0,0.0,0.0,0.0,0.0,0.396640284359,0.257307747379,8.69906008244,0.0,0.0,0.0,0.0,0.0,0.0,0.0,0.0,0.0
1441927239461272925,233,1441927239456899582,ardrone_base_link,-0.00157250865557,0.0131335563874,-0.420113038448,0.907375375376,0.0,0.0,0.0,0.0,0.0,0.0,0.0,0.0,0.0,-0.000882866697754,0.00123820175924,-8.50084784446e-05,0.0,0.0,0.0,0.0,0.0,0.0,0.0,0.0,0.0,0.397953362018,0.259917565435,8.68637930155,0.0,0.0,0.0,0.0,0.0,0.0,0.0,0.0,0.0
1441927239481328429,234,1441927239472851755,ardrone_base_link,-0.00156033930773,0.0131183069091,-0.420113363728,0.907375466377,0.0,0.0,0.0,0.0,0.0,0.0,0.0,0.0,0.0,0.00113103839445,0.00186824845192,-0.00047823194756,0.0,0.0,0.0,0.0,0.0,0.0,0.0,0.0,0.0,0.39802159518,0.259882864729,8.69000672102,0.0,0.0,0.0,0.0,0.0,0.0,0.0,0.0,0.0
1441927239501088378,235,1441927239498129467,ardrone_base_link,-0.00157181033414,0.0131140686568,-0.420121289599,0.907371838135,0.0,0.0,0.0,0.0,0.0,0.0,0.0,0.0,0.0,-0.000323279763332,0.00124803230859,-0.000694611573821,0.0,0.0,0.0,0.0,0.0,0.0,0.0,0.0,0.0,0.395954447985,0.182117978856,8.60663448572,0.0,0.0,0.0,0.0,0.0,0.0,0.0,0.0,0.0
1441927239521081886,236,1441927239520072631,ardrone_base_link,-0.0015759464127,0.0131256667268,-0.420128992857,0.907368096544,0.0,0.0,0.0,0.0,0.0,0.0,0.0,0.0,0.0,-0.0014357561657,0.00325844388742,-0.00024928013346,0.0,0.0,0.0,0.0,0.0,0.0,0.0,0.0,0.0,0.397198379785,0.238435089961,8.61410895586,0.0,0.0,0.0,0.0,0.0,0.0,0.0,0.0,0.0
1441927239541235808,237,1441927239540464409,ardrone_base_link,-0.00158363557484,0.0131293606266,-0.420144706114,0.907360754007,0.0,0.0,0.0,0.0,0.0,0.0,0.0,0.0,0.0,-0.000503590331896,0.00156316436599,-0.001382323896,0.0,0.0,0.0,0.0,0.0,0.0,0.0,0.0,0.0,0.397350544482,0.217841489241,8.64820319414,0.0,0.0,0.0,0.0,0.0,0.0,0.0,0.0,0.0
1441927239561287994,238,1441927239552834467,ardrone_base_link,-0.00156354907264,0.0131104433653,-0.420145145796,0.907360858784,0.0,0.0,0.0,0.0,0.0,0.0,0.0,0.0,0.0,0.000869085814498,0.0016510445201,-0.00018733740292,0.0,0.0,0.0,0.0,0.0,0.0,0.0,0.0,0.0,0.397522751987,0.267924612015,8.65186858177,0.0,0.0,0.0,0.0,0.0,0.0,0.0,0.0,0.0
1441927239581415536,239,1441927239571223148,ardrone_base_link,-0.00156343472511,0.0131104570019,-0.420153059656,0.907357194302,0.0,0.0,0.0,0.0,0.0,0.0,0.0,0.0,0.0,-0.00239350404775,0.00210751500874,-0.00127701486113,0.0,0.0,0.0,0.0,0.0,0.0,0.0,0.0,0.0,0.396337305754,0.250420542434,8.61095584631,0.0,0.0,0.0,0.0,0.0,0.0,0.0,0.0,0.0
1441927239601528990,240,1441927239592909076,ardrone_base_link,-0.00156332037745,0.0131104706375,-0.420160973484,0.90735352975,0.0,0.0,0.0,0.0,0.0,0.0,0.0,0.0,0.0,-0.00167090743646,0.00237712742769,-0.000486793919372,0.0,0.0,0.0,0.0,0.0,0.0,0.0,0.0,0.0,0.397086373717,0.239072462171,8.63626425266,0.0,0.0,0.0,0.0,0.0,0.0,0.0,0.0,0.0
1441927239621053431,241,1441927239618670109,ardrone_base_link,-0.00155953795569,0.0131184022,-0.420168791174,0.907349801503,0.0,0.0,0.0,0.0,0.0,0.0,0.0,0.0,0.0,-0.00175429896781,0.00190038700638,-0.000934934682572,0.0,0.0,0.0,0.0,0.0,0.0,0.0,0.0,0.0,0.397634392977,0.270390516147,8.61260191202,0.0,0.0,0.0,0.0,0.0,0.0,0.0,0.0,0.0
1441927239641727231,242,1441927239626302366,ardrone_base_link,-0.00155528752987,0.013106817431,-0.42016900168,0.907349878737,0.0,0.0,0.0,0.0,0.0,0.0,0.0,0.0,0.0,-0.00067989039185,0.00171443035429,-0.000499634536422,0.0,0.0,0.0,0.0,0.0,0.0,0.0,0.0,0.0,0.397347003222,0.250998224318,8.61981294155,0.0,0.0,0.0,0.0,0.0,0.0,0.0,0.0,0.0
1441927239661198423,243,1441927239658312246,ardrone_base_link,-0.00153200093962,0.0131153325127,-0.420176982522,0.907346099559,0.0,0.0,0.0,0.0,0.0,0.0,0.0,0.0,0.0,-0.000811597685729,0.00266822757734,-0.000985777587291,0.0,0.0,0.0,0.0,0.0,0.0,0.0,0.0,0.0,0.397240655869,0.254008515179,8.61224267483,0.0,0.0,0.0,0.0,0.0,0.0,0.0,0.0,0.0
1441927239681332368,244,1441927239678520844,ardrone_base_link,-0.00152396858643,0.0131116791119,-0.420185010689,0.907342448133,0.0,0.0,0.0,0.0,0.0,0.0,0.0,0.0,0.0,-0.001422505639,0.00307611150107,-0.000210338278534,0.0,0.0,0.0,0.0,0.0,0.0,0.0,0.0,0.0,0.397585399449,0.257924985513,8.61203706264,0.0,0.0,0.0,0.0,0.0,0.0,0.0,0.0,0.0
1441927239701278718,245,1441927239700482581,ardrone_base_link,-0.00151971792379,0.013100095207,-0.420185220881,0.907342525244,0.0,0.0,0.0,0.0,0.0,0.0,0.0,0.0,0.0,0.000298800755301,-0.000241650268022,-0.000320042325648,0.0,0.0,0.0,0.0,0.0,0.0,0.0,0.0,0.0,0.397021681815,0.258628984541,8.6980314374,0.0,0.0,0.0,0.0,0.0,0.0,0.0,0.0,0.0
1441927239721254972,246,1441927239713020351,ardrone_base_link,-0.00150755020454,0.0130848438063,-0.420185545077,0.907342615478,0.0,0.0,0.0,0.0,0.0,0.0,0.0,0.0,0.0,-0.000887833857252,0.0023531080035,0.000463103521708,0.0,0.0,0.0,0.0,0.0,0.0,0.0,0.0,0.0,0.395960106701,0.243589157984,8.68366136551,0.0,0.0,0.0,0.0,0.0,0.0,0.0,0.0,0.0
1441927239741348037,247,1441927239738365600,ardrone_base_link,-0.00150743608028,0.0130848569545,-0.420193458778,0.907338950644,0.0,0.0,0.0,0.0,0.0,0.0,0.0,0.0,0.0,0.000701561604978,0.00164629049151,-0.000511567331537,0.0,0.0,0.0,0.0,0.0,0.0,0.0,0.0,0.0,0.39664061293,0.22958390899,8.5992657423,0.0,0.0,0.0,0.0,0.0,0.0,0.0,0.0,0.0
1441927239761299100,248,1441927239759004877,ardrone_base_link,-0.00151099030239,0.0130769522949,-0.420201468039,0.907335349518,0.0,0.0,0.0,0.0,0.0,0.0,0.0,0.0,0.0,-0.000854314178108,0.000861780716871,-0.000381761928674,0.0,0.0,0.0,0.0,0.0,0.0,0.0,0.0,0.0,0.397670572251,0.249911842123,8.61635783911,0.0,0.0,0.0,0.0,0.0,0.0,0.0,0.0,0.0
1441927239781291506,249,1441927239778169123,ardrone_base_link,-0.00151087624696,0.0130769654731,-0.420209381677,0.907331684544,0.0,0.0,0.0,0.0,0.0,0.0,0.0,0.0,0.0,0.000317711377017,0.0025824191753,-0.00108319798277,0.0,0.0,0.0,0.0,0.0,0.0,0.0,0.0,0.0,0.395810899138,0.185345582664,8.61354469061,0.0,0.0,0.0,0.0,0.0,0.0,0.0,0.0,0.0
1441927239801278301,250,1441927239799029149,ardrone_base_link,-0.00153451617432,0.0130879799974,-0.420216952781,0.907327979639,0.0,0.0,0.0,0.0,0.0,0.0,0.0,0.0,0.0,-0.00142869670827,0.00248921608002,-0.00180941170775,0.0,0.0,0.0,0.0,0.0,0.0,0.0,0.0,0.0,0.396934793144,0.188680300489,8.69874874353,0.0,0.0,0.0,0.0,0.0,0.0,0.0,0.0,0.0
1441927239821129260,251,1441927239813300055,ardrone_base_link,-0.00155804075293,0.013099008349,-0.420232467317,0.907320594885,0.0,0.0,0.0,0.0,0.0,0.0,0.0,0.0,0.0,-0.000672912467721,0.00284204435013,-0.00186071357863,0.0,0.0,0.0,0.0,0.0,0.0,0.0,0.0,0.0,0.397019345313,0.177726468444,8.68411581516,0.0,0.0,0.0,0.0,0.0,0.0,0.0,0.0,0.0
1441927239841312770,252,1441927239838358897,ardrone_base_link,-0.00158168019769,0.0131100238892,-0.420240037748,0.907316888543,0.0,0.0,0.0,0.0,0.0,0.0,0.0,0.0,0.0,-0.000893765047248,0.00315330832213,-0.000573101924191,0.0,0.0,0.0,0.0,0.0,0.0,0.0,0.0,0.0,0.396480343491,0.2129151389,8.5993708849,0.0,0.0,0.0,0.0,0.0,0.0,0.0,0.0,0.0
1441927239861258428,253,1441927239858434435,ardrone_base_link,-0.00156573043749,0.0131027030581,-0.420248179971,0.907313250698,0.0,0.0,0.0,0.0,0.0,0.0,0.0,0.0,0.0,-0.000562045254452,0.00204930218287,-0.000482980384553,0.0,0.0,0.0,0.0,0.0,0.0,0.0,0.0,0.0,0.396839215606,0.262546988204,8.61626262665,0.0,0.0,0.0,0.0,0.0,0.0,0.0,0.0,0.0
1441927239881253677,254,1441927239878319485,ardrone_base_link,-0.00155781225721,0.0130990355251,-0.420248294303,0.907313264328,0.0,0.0,0.0,0.0,0.0,0.0,0.0,0.0,0.0,-0.000442934335324,0.00156443899025,-0.00051344324763,0.0,0.0,0.0,0.0,0.0,0.0,0.0,0.0,0.0,0.397619899362,0.261897422373,8.61255868673,0.0,0.0,0.0,0.0,0.0,0.0,0.0,0.0,0.0
1441927239901191498,255,1441927239893720591,ardrone_base_link,-0.0015497803327,0.0130953817272,-0.420256322041,0.907309612504,0.0,0.0,0.0,0.0,0.0,0.0,0.0,0.0,0.0,-0.000972404370537,0.00201215927829,-0.000709716495456,0.0,0.0,0.0,0.0,0.0,0.0,0.0,0.0,0.0,0.396994446963,0.257431089133,8.61217608452,0.0,0.0,0.0,0.0,0.0,0.0,0.0,0.0,0.0
1441927239921181315,256,1441927239918235875,ardrone_base_link,-0.00153371667489,0.013088073711,-0.420272377327,0.907302308437,0.0,0.0,0.0,0.0,0.0,0.0,0.0,0.0,0.0,-0.000406748276691,0.00198671646733,-0.000264381527837,0.0,0.0,0.0,0.0,0.0,0.0,0.0,0.0,0.0,0.396625462174,0.242339421436,8.61253941059,0.0,0.0,0.0,0.0,0.0,0.0,0.0,0.0,0.0
1441927239941363081,257,1441927239940200613,ardrone_base_link,-0.00153360252246,0.0130880870873,-0.420280290676,0.907298642845,0.0,0.0,0.0,0.0,0.0,0.0,0.0,0.0,0.0,-0.000169424800165,0.00233294340093,-0.00143524681013,0.0,0.0,0.0,0.0,0.0,0.0,0.0,0.0,0.0,0.396839361638,0.222160768881,8.61303708553,0.0,0.0,0.0,0.0,0.0,0.0,0.0,0.0,0.0
1441927239961324722,258,1441927239960175545,ardrone_base_link,-0.00153773637401,0.0130996856279,-0.420288024093,0.907294886136,0.0,0.0,0.0,0.0,0.0,0.0,0.0,0.0,0.0,-0.00131301890024,0.00368580217648,-0.00150986811517,0.0,0.0,0.0,0.0,0.0,0.0,0.0,0.0,0.0,0.396772223711,0.214072474092,8.61292726994,0.0,0.0,0.0,0.0,0.0,0.0,0.0,0.0,0.0
1441927239981282528,259,1441927239978376395,ardrone_base_link,-0.001549787973,0.0131149519151,-0.420295612638,0.907291129787,0.0,0.0,0.0,0.0,0.0,0.0,0.0,0.0,0.0,-0.00194179864086,0.00339742370462,-0.000807076943806,0.0,0.0,0.0,0.0,0.0,0.0,0.0,0.0,0.0,0.397422099859,0.275611046702,8.61211358309,0.0,0.0,0.0,0.0,0.0,0.0,0.0,0.0,0.0
1441927240001313629,260,1441927239993077644,ardrone_base_link,-0.0015418704577,0.0131112841868,-0.42029572707,0.907291143277,0.0,0.0,0.0,0.0,0.0,0.0,0.0,0.0,0.0,0.00147119272264,0.00197758993918,-6.30022245694e-05,0.0,0.0,0.0,0.0,0.0,0.0,0.0,0.0,0.0,0.396886748821,0.259465287998,8.61234840155,0.0,0.0,0.0,0.0,0.0,0.0,0.0,0.0,0.0
1441927240061303966,261,1441927240054535294,ardrone_base_link,-0.0015337242964,0.0131076432133,-0.420311667942,0.907283825035,0.0,0.0,0.0,0.0,0.0,0.0,0.0,0.0,0.0,-0.00123441026572,0.00229951552802,-0.000309225639491,0.0,0.0,0.0,0.0,0.0,0.0,0.0,0.0,0.0,0.39591268301,0.189868411794,8.61320940256,0.0,0.0,0.0,0.0,0.0,0.0,0.0,0.0,0.0
1441927240081274126,262,1441927240080102139,ardrone_base_link,-0.00154152739274,0.0131113245262,-0.42031946673,0.907280145683,0.0,0.0,0.0,0.0,0.0,0.0,0.0,0.0,0.0,-0.00106092996409,0.00154305385888,-0.00214371592412,0.0,0.0,0.0,0.0,0.0,0.0,0.0,0.0,0.0,0.396869882196,0.270518476143,8.61220937967,0.0,0.0,0.0,0.0,0.0,0.0,0.0,0.0,0.0
1441927240101442070,263,1441927240081304503,ardrone_base_link,-0.00153349565006,0.0131076699652,-0.420327494287,0.907276493097,0.0,0.0,0.0,0.0,0.0,0.0,0.0,0.0,0.0,-0.00159125291305,0.000520666129261,-0.00145946168018,0.0,0.0,0.0,0.0,0.0,0.0,0.0,0.0,0.0,0.396954543889,0.25674260594,8.61239104271,0.0,0.0,0.0,0.0,0.0,0.0,0.0,0.0,0.0
1441927240121148967,264,1441927240119531617,ardrone_base_link,-0.00150538095285,0.0130850935511,-0.420335960334,0.907272943829,0.0,0.0,0.0,0.0,0.0,0.0,0.0,0.0,0.0,-0.00128953028774,0.00245733460904,-0.000357309123131,0.0,0.0,0.0,0.0,0.0,0.0,0.0,0.0,0.0,0.397408847511,0.244391910732,8.61253006458,0.0,0.0,0.0,0.0,0.0,0.0,0.0,0.0,0.0
1441927240141330917,265,1441927240138557915,ardrone_base_link,-0.00156366503886,0.0130833787299,-0.420351418926,0.907265707916,0.0,0.0,0.0,0.0,0.0,0.0,0.0,0.0,0.0,-0.000270513121354,0.00143111123828,-0.000952632610228,0.0,0.0,0.0,0.0,0.0,0.0,0.0,0.0,0.0,0.395507993549,0.214350024983,8.59761967659,0.0,0.0,0.0,0.0,0.0,0.0,0.0,0.0,0.0
1441927240161277406,266,1441927240153831543,ardrone_base_link,-0.00157938592186,0.0130907291519,-0.420359103539,0.907262014206,0.0,0.0,0.0,0.0,0.0,0.0,0.0,0.0,0.0,-0.00069437061496,0.00047977083984,-0.000177422069348,0.0,0.0,0.0,0.0,0.0,0.0,0.0,0.0,0.0,0.395232979953,0.183145200089,8.5432171464,0.0,0.0,0.0,0.0,0.0,0.0,0.0,0.0,0.0
1441927240181255107,267,1441927240178638210,ardrone_base_link,-0.00161828030373,0.0130895832292,-0.420366751957,0.907258418439,0.0,0.0,0.0,0.0,0.0,0.0,0.0,0.0,0.0,-0.000325484218314,0.00107772881481,-0.00211804866901,0.0,0.0,0.0,0.0,0.0,0.0,0.0,0.0,0.0,0.396244575828,0.175569347665,8.62233928442,0.0,0.0,0.0,0.0,0.0,0.0,0.0,0.0,0.0
1441927240201465537,268,1441927240193707345,ardrone_base_link,-0.00163813352589,0.0131085339734,-0.42038213852,0.907250979867,0.0,0.0,0.0,0.0,0.0,0.0,0.0,0.0,0.0,-0.00116908804815,0.00414055357384,-0.00146946036757,0.0,0.0,0.0,0.0,0.0,0.0,0.0,0.0,0.0,0.396293094754,0.179823533818,8.61107033491,0.0,0.0,0.0,0.0,0.0,0.0,0.0,0.0,0.0
1441927240221368736,269,1441927240218995785,ardrone_base_link,-0.00166613314808,0.0131311242293,-0.420381583878,0.907250859197,0.0,0.0,0.0,0.0,0.0,0.0,0.0,0.0,0.0,-7.23279046317e-05,0.00156574365309,0.000375366766085,0.0,0.0,0.0,0.0,0.0,0.0,0.0,0.0,0.0,0.398172336072,0.180357296765,8.61208496094,0.0,0.0,0.0,0.0,0.0,0.0,0.0,0.0,0.0
1441927240241409390,270,1441927240238536255,ardrone_base_link,-0.00168977048696,0.0131421446161,-0.42038915286,0.907247148724,0.0,0.0,0.0,0.0,0.0,0.0,0.0,0.0,0.0,-0.00164079330054,0.00335478035814,-0.00134680749624,0.0,0.0,0.0,0.0,0.0,0.0,0.0,0.0,0.0,0.395999060571,0.179119023681,8.61352074146,0.0,0.0,0.0,0.0,0.0,0.0,0.0,0.0,0.0
1441927240261362558,271,1441927240258624947,ardrone_base_link,-0.00170112758631,0.0131379268141,-0.420404991152,0.907239849466,0.0,0.0,0.0,0.0,0.0,0.0,0.0,0.0,0.0,-0.000841417807626,-0.000138171018561,-0.000504095103648,0.0,0.0,0.0,0.0,0.0,0.0,0.0,0.0,0.0,0.396121872962,0.264330067858,8.61210891008,0.0,0.0,0.0,0.0,0.0,0.0,0.0,0.0,0.0
1441927240281202494,272,1441927240280384163,ardrone_base_link,-0.00169298140788,0.0131342876651,-0.420420931362,0.907232530708,0.0,0.0,0.0,0.0,0.0,0.0,0.0,0.0,0.0,-0.00161926161728,0.00139418939688,-0.00164298533697,0.0,0.0,0.0,0.0,0.0,0.0,0.0,0.0,0.0,0.396255710721,0.256004727632,8.6124915123,0.0,0.0,0.0,0.0,0.0,0.0,0.0,0.0,0.0
1441927240301229897,273,1441927240298637566,ardrone_base_link,-0.00167714692797,0.0131269498016,-0.420421160539,0.907232560118,0.0,0.0,0.0,0.0,0.0,0.0,0.0,0.0,0.0,-0.000174300624812,0.00266661927772,-0.00034403336923,0.0,0.0,0.0,0.0,0.0,0.0,0.0,0.0,0.0,0.39703245163,0.256314843521,8.61238636971,0.0,0.0,0.0,0.0,0.0,0.0,0.0,0.0,0.0
1441927240320994157,274,1441927240315035808,ardrone_base_link,-0.00168070279713,0.0131190475636,-0.420429170142,0.907228956065,0.0,0.0,0.0,0.0,0.0,0.0,0.0,0.0,0.0,-0.00163531496496,0.00031177794388,-0.00076735787302,0.0,0.0,0.0,0.0,0.0,0.0,0.0,0.0,0.0,0.397331742942,0.224211797863,8.6128075242,0.0,0.0,0.0,0.0,0.0,0.0,0.0,0.0,0.0
1441927240340941224,275,1441927240338674102,ardrone_base_link,-0.00171592703989,0.0131258214512,-0.420436721759,0.907225292528,0.0,0.0,0.0,0.0,0.0,0.0,0.0,0.0,0.0,-0.000342097148403,0.00034941687521,0.000140815047913,0.0,0.0,0.0,0.0,0.0,0.0,0.0,0.0,0.0,0.39622676,0.189327712357,8.69866287708,0.0,0.0,0.0,0.0,0.0,0.0,0.0,0.0,0.0
1441927240361276190,276,1441927240358571991,ardrone_base_link,-0.00173898741316,0.0131173420363,-0.420444599663,0.90722172035,0.0,0.0,0.0,0.0,0.0,0.0,0.0,0.0,0.0,-0.000285155143203,0.00209914802765,-0.00136362221149,0.0,0.0,0.0,0.0,0.0,0.0,0.0,0.0,0.0,0.414135683328,0.178877816349,8.65668236017,0.0,0.0,0.0,0.0,0.0,0.0,0.0,0.0,0.0
1441927240381240279,277,1441927240378953286,ardrone_base_link,-0.00177065505024,0.0131320181402,-0.420444141531,0.907221659096,0.0,0.0,0.0,0.0,0.0,0.0,0.0,0.0,0.0,-0.000335550882632,0.00268919710994,0.000261602227328,0.0,0.0,0.0,0.0,0.0,0.0,0.0,0.0,0.0,0.389909259975,0.178446713462,8.60667771101,0.0,0.0,0.0,0.0,0.0,0.0,0.0,0.0,0.0
1441927240401115641,278,1441927240398467694,ardrone_base_link,-0.00180163189086,0.0131272085545,-0.420451935659,0.907218055552,0.0,0.0,0.0,0.0,0.0,0.0,0.0,0.0,0.0,-0.000145027991875,0.000126087575394,-0.000203015398326,0.0,0.0,0.0,0.0,0.0,0.0,0.0,0.0,0.0,0.405574082583,0.180745356902,8.60890790224,0.0,0.0,0.0,0.0,0.0,0.0,0.0,0.0,0.0
1441927240421260589,279,1441927240418921997,ardrone_base_link,-0.00180943424258,0.0131308934281,-0.420459733702,0.907214372638,0.0,0.0,0.0,0.0,0.0,0.0,0.0,0.0,0.0,0.000941813908495,0.00169062705186,-0.00135668576922,0.0,0.0,0.0,0.0,0.0,0.0,0.0,0.0,0.0,0.393183977157,0.1796426557,8.61520010233,0.0,0.0,0.0,0.0,0.0,0.0,0.0,0.0,0.0
1441927240441717765,280,1441927240439375731,ardrone_base_link,-0.00182090771544,0.0131266619581,-0.420467629383,0.907210751525,0.0,0.0,0.0,0.0,0.0,0.0,0.0,0.0,0.0,0.00116683710489,0.00160317081891,-0.00116341881802,0.0,0.0,0.0,0.0,0.0,0.0,0.0,0.0,0.0,0.394687516242,0.178910837695,8.61379820108,0.0,0.0,0.0,0.0,0.0,0.0,0.0,0.0,0.0
1441927240461288677,281,1441927240458897463,ardrone_base_link,-0.00182503922506,0.0131382638023,-0.420475329589,0.907207006401,0.0,0.0,0.0,0.0,0.0,0.0,0.0,0.0,0.0,-0.00197701647529,0.00239790320493,-0.000396484963675,0.0,0.0,0.0,0.0,0.0,0.0,0.0,0.0,0.0,0.397834930569,0.252925400436,8.61261125803,0.0,0.0,0.0,0.0,0.0,0.0,0.0,0.0,0.0
1441927240481365561,282,1441927240480158286,ardrone_base_link,-0.00181276151554,0.0131230241333,-0.420483568994,0.90720343272,0.0,0.0,0.0,0.0,0.0,0.0,0.0,0.0,0.0,-0.000148943508338,0.00131632574526,-0.000955512283171,0.0,0.0,0.0,0.0,0.0,0.0,0.0,0.0,0.0,0.397617270797,0.249161113054,8.61245821714,0.0,0.0,0.0,0.0,0.0,0.0,0.0,0.0,0.0
1441927240501229857,283,1441927240494325136,ardrone_base_link,-0.00180840082212,0.0131114548445,-0.420491693513,0.907199842992,0.0,0.0,0.0,0.0,0.0,0.0,0.0,0.0,0.0,-0.000667799601583,0.00158647729829,-0.00112833869294,0.0,0.0,0.0,0.0,0.0,0.0,0.0,0.0,0.0,0.396104677767,0.245464255661,8.61260658503,0.0,0.0,0.0,0.0,0.0,0.0,0.0,0.0,0.0
1441927240521216823,284,1441927240519106445,ardrone_base_link,-0.00182022034237,0.013126757291,-0.420515134408,0.90718873272,0.0,0.0,0.0,0.0,0.0,0.0,0.0,0.0,0.0,0.000551739484303,0.00254611852141,-0.00195656904189,0.0,0.0,0.0,0.0,0.0,0.0,0.0,0.0,0.0,0.395839448273,0.174399380758,8.61342961788,0.0,0.0,0.0,0.0,0.0,0.0,0.0,0.0,0.0
1441927240541673595,285,1441927240528897098,ardrone_base_link,-0.00182813696397,0.013130426934,-0.420515019841,0.907188716801,0.0,0.0,0.0,0.0,0.0,0.0,0.0,0.0,0.0,0.000300391564918,0.00133412471179,-0.000829892223882,0.0,0.0,0.0,0.0,0.0,0.0,0.0,0.0,0.0,0.396721112728,0.179563105106,8.6133431673,0.0,0.0,0.0,0.0,0.0,0.0,0.0,0.0,0.0
1441927240561311310,286,1441927240559291027,ardrone_base_link,-0.00185532842264,0.0131335526627,-0.420530598578,0.907181394877,0.0,0.0,0.0,0.0,0.0,0.0,0.0,0.0,0.0,-0.000903361854793,0.0015214951279,-5.17335739388e-05,0.0,0.0,0.0,0.0,0.0,0.0,0.0,0.0,0.0,0.396069265157,0.181649035588,8.61332447529,0.0,0.0,0.0,0.0,0.0,0.0,0.0,0.0,0.0
1441927240581051788,287,1441927240579237864,ardrone_base_link,-0.00187093278311,0.0131409250743,-0.420546193843,0.907174026603,0.0,0.0,0.0,0.0,0.0,0.0,0.0,0.0,0.0,-0.000293642506194,0.00132388337506,-0.00115123953747,0.0,0.0,0.0,0.0,0.0,0.0,0.0,0.0,0.0,0.396633311361,0.247198597342,8.61250611544,0.0,0.0,0.0,0.0,0.0,0.0,0.0,0.0,0.0
1441927240601261271,288,1441927240598931616,ardrone_base_link,-0.0018471828306,0.0131299151075,-0.42054653773,0.907174075273,0.0,0.0,0.0,0.0,0.0,0.0,0.0,0.0,0.0,-0.000144139984353,0.0018071261746,9.28894131323e-05,0.0,0.0,0.0,0.0,0.0,0.0,0.0,0.0,0.0,0.39699755013,0.250557538122,8.61248216629,0.0,0.0,0.0,0.0,0.0,0.0,0.0,0.0,0.0
1441927240621471609,289,1441927240619085758,ardrone_base_link,-0.00186668769639,0.0131293387835,-0.420546406497,0.907174104526,0.0,0.0,0.0,0.0,0.0,0.0,0.0,0.0,0.0,-0.00139667674771,0.00171635854532,-0.000930432015815,0.0,0.0,0.0,0.0,0.0,0.0,0.0,0.0,0.0,0.395778772235,0.174569817632,8.61342027187,0.0,0.0,0.0,0.0,0.0,0.0,0.0,0.0,0.0
1441927240641251143,290,1441927240633793025,ardrone_base_link,-0.00188240610777,0.0131366950328,-0.420554089517,0.907170403828,0.0,0.0,0.0,0.0,0.0,0.0,0.0,0.0,0.0,0.000277440981175,0.00294447930365,-0.00143415384779,0.0,0.0,0.0,0.0,0.0,0.0,0.0,0.0,0.0,0.396068973094,0.186048194394,8.61327190399,0.0,0.0,0.0,0.0,0.0,0.0,0.0,0.0,0.0
1441927240661248841,291,1441927240659049714,ardrone_base_link,-0.00191441617708,0.0131709103474,-0.420569173501,0.907162847802,0.0,0.0,0.0,0.0,0.0,0.0,0.0,0.0,0.0,5.29170502738e-05,0.00246964912824,-0.0016383272758,0.0,0.0,0.0,0.0,0.0,0.0,0.0,0.0,0.0,0.362933540344,0.180892739072,8.6132240057,0.0,0.0,0.0,0.0,0.0,0.0,0.0,0.0,0.0
1441927240681049697,292,1441927240679093913,ardrone_base_link,-0.00190638493831,0.0131672568596,-0.420577200555,0.907159196292,0.0,0.0,0.0,0.0,0.0,0.0,0.0,0.0,0.0,-0.000818416379353,0.00160334168774,-0.000374377703434,0.0,0.0,0.0,0.0,0.0,0.0,0.0,0.0,0.0,0.41037979275,0.263697441667,8.61234840155,0.0,0.0,0.0,0.0,0.0,0.0,0.0,0.0,0.0
1441927240701177963,293,1441927240700106124,ardrone_base_link,-0.00188665035644,0.013167865423,-0.420593156139,0.907151831217,0.0,0.0,0.0,0.0,0.0,0.0,0.0,0.0,0.0,-0.000571976647613,0.00185536775092,-0.00115861420497,0.0,0.0,0.0,0.0,0.0,0.0,0.0,0.0,0.0,0.365334332734,0.254862196371,8.61228122711,0.0,0.0,0.0,0.0,0.0,0.0,0.0,0.0,0.0
1441927240721036165,294,1441927240719066195,ardrone_base_link,-0.00186771902422,0.0131879426855,-0.420592976042,0.907151662236,0.0,0.0,0.0,0.0,0.0,0.0,0.0,0.0,0.0,-0.00183718738539,0.00112615198803,0.000196900222001,0.0,0.0,0.0,0.0,0.0,0.0,0.0,0.0,0.0,0.343753596395,0.256558916718,8.61217608452,0.0,0.0,0.0,0.0,0.0,0.0,0.0,0.0,0.0
1441927240741379374,295,1441927240733941757,ardrone_base_link,-0.00186347454898,0.0131763561854,-0.420593189408,0.907151740407,0.0,0.0,0.0,0.0,0.0,0.0,0.0,0.0,0.0,-0.000450542094444,0.00163250551208,-0.000259255170344,0.0,0.0,0.0,0.0,0.0,0.0,0.0,0.0,0.0,0.422316689789,0.259203179926,8.61245354414,0.0,0.0,0.0,0.0,0.0,0.0,0.0,0.0,0.0
1441927240761053491,296,1441927240759342629,ardrone_base_link,-0.00186324470398,0.0131763886893,-0.420609013448,0.907144403558,0.0,0.0,0.0,0.0,0.0,0.0,0.0,0.0,0.0,0.000965668965715,0.00106335522217,-0.00103748731973,0.0,0.0,0.0,0.0,0.0,0.0,0.0,0.0,0.0,0.404356947541,0.201147839054,8.61309491396,0.0,0.0,0.0,0.0,0.0,0.0,0.0,0.0,0.0
1441927240781199555,297,1441927240779146980,ardrone_base_link,-0.00187884676084,0.0131837624514,-0.420624637526,0.907137019776,0.0,0.0,0.0,0.0,0.0,0.0,0.0,0.0,0.0,-0.0020457911795,0.00181700470766,-0.00179714946349,0.0,0.0,0.0,0.0,0.0,0.0,0.0,0.0,0.0,0.393190000951,0.180708246678,8.61331980228,0.0,0.0,0.0,0.0,0.0,0.0,0.0,0.0,0.0
1441927240801040584,298,1441927240798939124,ardrone_base_link,-0.00191774070329,0.0131826306389,-0.420632286296,0.907133408185,0.0,0.0,0.0,0.0,0.0,0.0,0.0,0.0,0.0,-0.000676029718559,0.000963558007452,-0.000301384821267,0.0,0.0,0.0,0.0,0.0,0.0,0.0,0.0,0.0,0.396590195596,0.18701521419,8.613285923,0.0,0.0,0.0,0.0,0.0,0.0,0.0,0.0,0.0
1441927240821225384,299,1441927240819043504,ardrone_base_link,-0.00192978616986,0.0131979050309,-0.420639869234,0.907129644339,0.0,0.0,0.0,0.0,0.0,0.0,0.0,0.0,0.0,-0.00111746602578,0.00303670165866,-0.00119031310378,0.0,0.0,0.0,0.0,0.0,0.0,0.0,0.0,0.0,0.395794215053,0.180843033642,8.61335309744,0.0,0.0,0.0,0.0,0.0,0.0,0.0,0.0,0.0
1441927240841369076,300,1441927240839435269,ardrone_base_link,-0.00195341928087,0.0132089342603,-0.420647435417,0.907125924713,0.0,0.0,0.0,0.0,0.0,0.0,0.0,0.0,0.0,0.000292289534546,0.00161968631865,-0.000127851033725,0.0,0.0,0.0,0.0,0.0,0.0,0.0,0.0,0.0,0.397524066269,0.212223406509,8.61293661594,0.0,0.0,0.0,0.0,0.0,0.0,0.0,0.0,0.0
1441927240861248840,301,1441927240859013410,ardrone_base_link,-0.00192967105949,0.0131979218617,-0.420647781078,0.907125975542,0.0,0.0,0.0,0.0,0.0,0.0,0.0,0.0,0.0,0.00113627668143,0.00191628743035,-0.000369937617061,0.0,0.0,0.0,0.0,0.0,0.0,0.0,0.0,0.0,0.397063483298,0.228423963487,8.61274502277,0.0,0.0,0.0,0.0,0.0,0.0,0.0,0.0,0.0
1441927240881040292,302,1441927240879407033,ardrone_base_link,-0.00195697645553,0.0132010353842,-0.420655446225,0.907122317259,0.0,0.0,0.0,0.0,0.0,0.0,0.0,0.0,0.0,-0.000981439352524,0.00189210663004,-0.000769181644211,0.0,0.0,0.0,0.0,0.0,0.0,0.0,0.0,0.0,0.39543344453,0.17885739021,8.61335309744,0.0,0.0,0.0,0.0,0.0,0.0,0.0,0.0,0.0
1441927240901308251,303,1441927240899645002,ardrone_base_link,-0.00198060981924,0.0132120654773,-0.420663012255,0.907118596784,0.0,0.0,0.0,0.0,0.0,0.0,0.0,0.0,0.0,-0.000299256177951,0.000961735861725,-0.000589992841222,0.0,0.0,0.0,0.0,0.0,0.0,0.0,0.0,0.0,0.395918378234,0.173827886954,8.61343896389,0.0,0.0,0.0,0.0,0.0,0.0,0.0,0.0,0.0
1441927240921064022,304,1441927240919148939,ardrone_base_link,-0.00199621127396,0.0132194424519,-0.420678635252,0.907111210009,0.0,0.0,0.0,0.0,0.0,0.0,0.0,0.0,0.0,-0.000889374407506,0.00299651783505,-0.00199923150383,0.0,0.0,0.0,0.0,0.0,0.0,0.0,0.0,0.0,0.39687422663,0.216001621634,8.61289339066,0.0,0.0,0.0,0.0,0.0,0.0,0.0,0.0,0.0
1441927240941475149,305,1441927240939758213,ardrone_base_link,-0.00196867510505,0.0132163620038,-0.42068679374,0.907107531479,0.0,0.0,0.0,0.0,0.0,0.0,0.0,0.0,0.0,0.000475283582486,0.000737640090369,-0.000490465193537,0.0,0.0,0.0,0.0,0.0,0.0,0.0,0.0,0.0,0.363050511479,0.228825093433,8.61261593103,0.0,0.0,0.0,0.0,0.0,0.0,0.0,0.0,0.0
1441927240961052519,306,1441927240959012833,ardrone_base_link,-0.00199598067735,0.0132194772712,-0.420694458585,0.907103871669,0.0,0.0,0.0,0.0,0.0,0.0,0.0,0.0,0.0,6.41540409192e-05,0.00250377217981,-9.24742776212e-05,0.0,0.0,0.0,0.0,0.0,0.0,0.0,0.0,0.0,0.408283110708,0.178783498332,8.61341034174,0.0,0.0,0.0,0.0,0.0,0.0,0.0,0.0,0.0
1441927240981208639,307,1441927240979428771,ardrone_base_link,-0.00200813970885,0.0132347354326,-0.420694128317,0.907103775515,0.0,0.0,0.0,0.0,0.0,0.0,0.0,0.0,0.0,-0.000802805743196,0.00197124113484,-0.000485708954314,0.0,0.0,0.0,0.0,0.0,0.0,0.0,0.0,0.0,0.399809566885,0.18865284659,8.61324795485,0.0,0.0,0.0,0.0,0.0,0.0,0.0,0.0,0.0
1441927241001277855,308,1441927240993974171,ardrone_base_link,-0.00202752877402,0.013234179781,-0.420701908506,0.907100132175,0.0,0.0,0.0,0.0,0.0,0.0,0.0,0.0,0.0,-0.00178178024132,0.00138945136286,-0.0011777775214,0.0,0.0,0.0,0.0,0.0,0.0,0.0,0.0,0.0,0.398745253682,0.195952060819,8.59438011646,0.0,0.0,0.0,0.0,0.0,0.0,0.0,0.0,0.0
1441927241021322177,309,1441927241019614666,ardrone_base_link,-0.00207055025361,0.0132446567646,-0.42071725373,0.907092764993,0.0,0.0,0.0,0.0,0.0,0.0,0.0,0.0,0.0,-0.00106165674179,0.00204674149108,-0.000922662230391,0.0,0.0,0.0,0.0,0.0,0.0,0.0,0.0,0.0,0.396521962434,0.178657089919,8.62648365498,0.0,0.0,0.0,0.0,0.0,0.0,0.0,0.0,0.0
1441927241041335796,310,1441927241039415085,ardrone_base_link,-0.00210221386097,0.0132593426045,-0.420716791147,0.907092692164,0.0,0.0,0.0,0.0,0.0,0.0,0.0,0.0,0.0,-0.00149454765694,0.00135817001338,-0.000994484875631,0.0,0.0,0.0,0.0,0.0,0.0,0.0,0.0,0.0,0.395443630219,0.180716333166,8.60175879002,0.0,0.0,0.0,0.0,0.0,0.0,0.0,0.0,0.0
1441927241061283968,311,1441927241059120317,ardrone_base_link,-0.00211001399651,0.0132630327001,-0.420724617133,0.907088990311,0.0,0.0,0.0,0.0,0.0,0.0,0.0,0.0,0.0,0.00049997273057,0.00210167933104,0.000316862494426,0.0,0.0,0.0,0.0,0.0,0.0,0.0,0.0,0.0,0.396612282842,0.179253920168,8.60511751175,0.0,0.0,0.0,0.0,0.0,0.0,0.0,0.0,0.0
1441927241081047876,312,1441927241080423197,ardrone_base_link,-0.00213387746578,0.0132740284283,-0.420716328051,0.90709261823,0.0,0.0,0.0,0.0,0.0,0.0,0.0,0.0,0.0,-0.000408466555235,0.00128484699937,0.00031262962227,0.0,0.0,0.0,0.0,0.0,0.0,0.0,0.0,0.0,0.396674528718,0.193362413347,8.59964834452,0.0,0.0,0.0,0.0,0.0,0.0,0.0,0.0,0.0
1441927241101275157,313,1441927241099578245,ardrone_base_link,-0.00214902259236,0.0132618883078,-0.420724354925,0.907089037082,0.0,0.0,0.0,0.0,0.0,0.0,0.0,0.0,0.0,-0.000295742053696,0.00119942753847,-0.000712908777736,0.0,0.0,0.0,0.0,0.0,0.0,0.0,0.0,0.0,0.395782605559,0.185852275044,8.6054574728,0.0,0.0,0.0,0.0,0.0,0.0,0.0,0.0,0.0
1441927241121283429,314,1441927241115236722,ardrone_base_link,-0.00216118155126,0.0132771470689,-0.42072402276,0.907088939042,0.0,0.0,0.0,0.0,0.0,0.0,0.0,0.0,0.0,0.000649666049436,0.0019851746167,0.000432500836173,0.0,0.0,0.0,0.0,0.0,0.0,0.0,0.0,0.0,0.395538550615,0.201679064706,8.61767854691,0.0,0.0,0.0,0.0,0.0,0.0,0.0,0.0,0.0
1441927241141300435,315,1441927241130464498,ardrone_base_link,-0.00217277031846,0.0132729029299,-0.420724007582,0.907088980509,0.0,0.0,0.0,0.0,0.0,0.0,0.0,0.0,0.0,-0.00147571502501,0.00137877973316,1.7953454742e-05,0.0,0.0,0.0,0.0,0.0,0.0,0.0,0.0,0.0,0.396470559388,0.192377413437,8.61576495171,0.0,0.0,0.0,0.0,0.0,0.0,0.0,0.0,0.0
1441927241201359640,316,1441927241180605930,ardrone_base_link,-0.00217265455395,0.01327292188,-0.420731919071,0.907085310978,0.0,0.0,0.0,0.0,0.0,0.0,0.0,0.0,0.0,-0.00122290639819,0.00126766557932,-0.00146319582731,0.0,0.0,0.0,0.0,0.0,0.0,0.0,0.0,0.0,0.396712642908,0.182769808173,8.60963513851,0.0,0.0,0.0,0.0,0.0,0.0,0.0,0.0,0.0
1441927241221264550,317,1441927241220392690,ardrone_base_link,-0.00219995903984,0.0132760412607,-0.420739583762,0.907081644376,0.0,0.0,0.0,0.0,0.0,0.0,0.0,0.0,0.0,0.000361476326521,0.00213255262391,-0.000268638131776,0.0,0.0,0.0,0.0,0.0,0.0,0.0,0.0,0.0,0.396358078718,0.177377124876,8.6146592021,0.0,0.0,0.0,0.0,0.0,0.0,0.0,0.0,0.0
1441927241241259612,318,1441927241239142085,ardrone_base_link,-0.0021770030253,0.0133040866733,-0.420763030375,0.907070413036,0.0,0.0,0.0,0.0,0.0,0.0,0.0,0.0,0.0,-0.000341747413457,0.0019499817494,-0.000767360928893,0.0,0.0,0.0,0.0,0.0,0.0,0.0,0.0,0.0,0.41211380586,0.207753130421,8.6096830368,0.0,0.0,0.0,0.0,0.0,0.0,0.0,0.0,0.0
1441927241261260059,319,1441927241259581311,ardrone_base_link,-0.00218044401065,0.0132962093421,-0.4207789841,0.907063119645,0.0,0.0,0.0,0.0,0.0,0.0,0.0,0.0,0.0,-0.00121559414852,0.00208094256495,-0.00113729812333,0.0,0.0,0.0,0.0,0.0,0.0,0.0,0.0,0.0,0.42566376552,0.178236975893,8.61452543736,0.0,0.0,0.0,0.0,0.0,0.0,0.0,0.0,0.0
1441927241281185905,320,1441927241279380808,ardrone_base_link,-0.0022194531517,0.0132950675309,-0.420778721977,0.907063163367,0.0,0.0,0.0,0.0,0.0,0.0,0.0,0.0,0.0,-0.000306982433435,0.00279540860272,0.000362321503053,0.0,0.0,0.0,0.0,0.0,0.0,0.0,0.0,0.0,0.39507329464,0.187944156304,8.61356863976,0.0,0.0,0.0,0.0,0.0,0.0,0.0,0.0,0.0
1441927241301108282,321,1441927241299388823,ardrone_base_link,-0.00223528467493,0.0133024116352,-0.420778489866,0.907063124492,0.0,0.0,0.0,0.0,0.0,0.0,0.0,0.0,0.0,-0.000486447695429,0.00136828885511,-0.000283533352233,0.0,0.0,0.0,0.0,0.0,0.0,0.0,0.0,0.0,0.402629286796,0.180373268947,8.61320005655,0.0,0.0,0.0,0.0,0.0,0.0,0.0,0.0,0.0
1441927241321276243,322,1441927241319962885,ardrone_base_link,-0.00225903125079,0.0133134274556,-0.42077814147,0.907063065662,0.0,0.0,0.0,0.0,0.0,0.0,0.0,0.0,0.0,-0.000618902247858,0.00176092839235,0.000322151560918,0.0,0.0,0.0,0.0,0.0,0.0,0.0,0.0,0.0,0.395750405639,0.178939423338,8.6133910656,0.0,0.0,0.0,0.0,0.0,0.0,0.0,0.0,0.0
1441927241341332639,323,1441927241339542959,ardrone_base_link,-0.0022711892655,0.0133286869187,-0.420777807435,0.907062966158,0.0,0.0,0.0,0.0,0.0,0.0,0.0,0.0,0.0,-9.90428935288e-05,0.00224596258383,-0.000772374706714,0.0,0.0,0.0,0.0,0.0,0.0,0.0,0.0,0.0,0.395946525782,0.179667627066,8.61332447529,0.0,0.0,0.0,0.0,0.0,0.0,0.0,0.0,0.0
1441927241361309532,324,1441927241349397275,ardrone_base_link,-0.00227107301445,0.0133287067272,-0.420785718697,0.907059296157,0.0,0.0,0.0,0.0,0.0,0.0,0.0,0.0,0.0,-0.000720665884537,0.00139826723223,-0.00119051050019,0.0,0.0,0.0,0.0,0.0,0.0,0.0,0.0,0.0,0.396800298244,0.213143805787,8.61290799379,0.0,0.0,0.0,0.0,0.0,0.0,0.0,0.0,0.0
1441927241381092450,325,1441927241379476264,ardrone_base_link,-0.0022789885065,0.0133323787315,-0.420785602367,0.907059276304,0.0,0.0,0.0,0.0,0.0,0.0,0.0,0.0,0.0,0.000719530530079,0.000784798067022,-0.00118897320087,0.0,0.0,0.0,0.0,0.0,0.0,0.0,0.0,0.0,0.396314634383,0.189867772907,8.6132240057,0.0,0.0,0.0,0.0,0.0,0.0,0.0,0.0,0.0
1441927241401293909,326,1441927241394873524,ardrone_base_link,-0.00230261907407,0.0133434150406,-0.420793164408,0.907055546264,0.0,0.0,0.0,0.0,0.0,0.0,0.0,0.0,0.0,-0.00138635283737,0.00311836551629,-0.000389778752195,0.0,0.0,0.0,0.0,0.0,0.0,0.0,0.0,0.0,0.3956562154,0.171811211854,8.61346758604,0.0,0.0,0.0,0.0,0.0,0.0,0.0,0.0,0.0
1441927241421285405,327,1441927241419549164,ardrone_base_link,-0.00232212364057,0.0133428438784,-0.42079303348,0.907055565682,0.0,0.0,0.0,0.0,0.0,0.0,0.0,0.0,0.0,-0.00118245989952,0.000917485450988,-0.000230442381319,0.0,0.0,0.0,0.0,0.0,0.0,0.0,0.0,0.0,0.396442776918,0.179360942915,8.61336244345,0.0,0.0,0.0,0.0,0.0,0.0,0.0,0.0,0.0
1441927241441203152,328,1441927241439760813,ardrone_base_link,-0.00235378594927,0.0133575323635,-0.420792567469,0.907055484071,0.0,0.0,0.0,0.0,0.0,0.0,0.0,0.0,0.0,-0.000347219539763,0.00143015065377,-0.000275890223004,0.0,0.0,0.0,0.0,0.0,0.0,0.0,0.0,0.0,0.395731786638,0.179277723283,8.61336244345,0.0,0.0,0.0,0.0,0.0,0.0,0.0,0.0,0.0
1441927241461262014,329,1441927241450504618,ardrone_base_link,-0.00236537462059,0.0133532900749,-0.420792553208,0.907055523004,0.0,0.0,0.0,0.0,0.0,0.0,0.0,0.0,0.0,7.75192156876e-05,0.000766123170171,0.000326811962753,0.0,0.0,0.0,0.0,0.0,0.0,0.0,0.0,0.0,0.395927468687,0.180686287209,8.61335777044,0.0,0.0,0.0,0.0,0.0,0.0,0.0,0.0,0.0
1441927241481213097,330,1441927241479663136,ardrone_base_link,-0.00236525815495,0.0133533107049,-0.420800464405,0.907051852875,0.0,0.0,0.0,0.0,0.0,0.0,0.0,0.0,0.0,5.1578272995e-05,0.0020921672427,-0.00220990926063,0.0,0.0,0.0,0.0,0.0,0.0,0.0,0.0,0.0,0.396452341974,0.229220473394,8.61271172762,0.0,0.0,0.0,0.0,0.0,0.0,0.0,0.0,0.0
1441927241501312961,331,1441927241499500791,ardrone_base_link,-0.00238888834557,0.0133643481555,-0.420808025834,0.907048120446,0.0,0.0,0.0,0.0,0.0,0.0,0.0,0.0,0.0,-0.000629794810699,0.00218461365174,7.41314144079e-05,0.0,0.0,0.0,0.0,0.0,0.0,0.0,0.0,0.0,0.396920591593,0.172847651318,8.61343896389,0.0,0.0,0.0,0.0,0.0,0.0,0.0,0.0,0.0
1441927241521225632,332,1441927241519671122,ardrone_base_link,-0.00239256213547,0.0133564329251,-0.420808128342,0.907048179794,0.0,0.0,0.0,0.0,0.0,0.0,0.0,0.0,0.0,-0.00128905500192,0.00107056883866,0.000310723179953,0.0,0.0,0.0,0.0,0.0,0.0,0.0,0.0,0.0,0.397012737393,0.22462493889,8.6128075242,0.0,0.0,0.0,0.0,0.0,0.0,0.0,0.0,0.0
1441927241541079401,333,1441927241539856806,ardrone_base_link,-0.00238808774528,0.0133448871512,-0.420824169524,0.907040919346,0.0,0.0,0.0,0.0,0.0,0.0,0.0,0.0,0.0,-0.000395120223664,0.000906200631049,-0.00165933022796,0.0,0.0,0.0,0.0,0.0,0.0,0.0,0.0,0.0,0.39569381848,0.218251928687,8.6128600955,0.0,0.0,0.0,0.0,0.0,0.0,0.0,0.0,0.0
1441927241561342051,334,1441927241554282800,ardrone_base_link,-0.00239176123442,0.0133369729254,-0.420824271889,0.907040978578,0.0,0.0,0.0,0.0,0.0,0.0,0.0,0.0,0.0,0.000179139323849,0.000971848136578,-0.00167565561337,0.0,0.0,0.0,0.0,0.0,0.0,0.0,0.0,0.0,0.396022863686,0.242359792814,8.61256335974,0.0,0.0,0.0,0.0,0.0,0.0,0.0,0.0,0.0
1441927241581039387,335,1441927241579786583,ardrone_base_link,-0.00237925500884,0.0133217751885,-0.420848370121,0.907030053977,0.0,0.0,0.0,0.0,0.0,0.0,0.0,0.0,0.0,0.000129389340837,0.000835960277991,-0.000965299075009,0.0,0.0,0.0,0.0,0.0,0.0,0.0,0.0,0.0,0.397299944609,0.250649063289,8.61244887114,0.0,0.0,0.0,0.0,0.0,0.0,0.0,0.0,0.0
1441927241601250849,336,1441927241599735689,ardrone_base_link,-0.0023754646158,0.0133297109832,-0.420856178887,0.90702632413,0.0,0.0,0.0,0.0,0.0,0.0,0.0,0.0,0.0,-0.00223738897369,0.00371449019484,-0.00127725256906,0.0,0.0,0.0,0.0,0.0,0.0,0.0,0.0,0.0,0.396684568375,0.198385235667,8.61311360598,0.0,0.0,0.0,0.0,0.0,0.0,0.0,0.0,0.0
1441927241621081955,337,1441927241619996468,ardrone_base_link,-0.00237902262712,0.0133218166895,-0.420864192039,0.907022712677,0.0,0.0,0.0,0.0,0.0,0.0,0.0,0.0,0.0,0.000504079174096,0.00121117847662,-0.000296738463446,0.0,0.0,0.0,0.0,0.0,0.0,0.0,0.0,0.0,0.397647426277,0.209995387495,8.63177115917,0.0,0.0,0.0,0.0,0.0,0.0,0.0,0.0,0.0
1441927241641304489,338,1441927241639587823,ardrone_base_link,-0.00235504491739,0.0133108396991,-0.420880362445,0.907015433065,0.0,0.0,0.0,0.0,0.0,0.0,0.0,0.0,0.0,0.00071766950324,0.000821062375517,-0.00155030421086,0.0,0.0,0.0,0.0,0.0,0.0,0.0,0.0,0.0,0.396841223538,0.265224309266,8.6054574728,0.0,0.0,0.0,0.0,0.0,0.0,0.0,0.0,0.0
1441927241661111456,339,1441927241659736727,ardrone_base_link,-0.0023349730848,0.0132919069731,-0.420880812532,0.907015553754,0.0,0.0,0.0,0.0,0.0,0.0,0.0,0.0,0.0,0.000694998109284,0.00156039418434,-0.000316688342157,0.0,0.0,0.0,0.0,0.0,0.0,0.0,0.0,0.0,0.396128590405,0.253088517487,8.62078434229,0.0,0.0,0.0,0.0,0.0,0.0,0.0,0.0,0.0
1441927241681300429,340,1441927241674611608,ardrone_base_link,-0.00230687039895,0.0132693206467,-0.420889318751,0.907012009204,0.0,0.0,0.0,0.0,0.0,0.0,0.0,0.0,0.0,0.00118214611985,0.00159250660132,-0.00155354902815,0.0,0.0,0.0,0.0,0.0,0.0,0.0,0.0,0.0,0.396696798503,0.255045666546,8.61368312836,0.0,0.0,0.0,0.0,0.0,0.0,0.0,0.0,0.0
1441927241701147399,341,1441927241694957490,ardrone_base_link,-0.00231042920767,0.0132614258711,-0.420897330993,0.907008397571,0.0,0.0,0.0,0.0,0.0,0.0,0.0,0.0,0.0,-0.000561538499634,-0.000326302834756,-0.000397713847361,0.0,0.0,0.0,0.0,0.0,0.0,0.0,0.0,0.0,0.396492938697,0.174620563537,8.61276897192,0.0,0.0,0.0,0.0,0.0,0.0,0.0,0.0,0.0
1441927241721128988,342,1441927241720073427,ardrone_base_link,-0.00229504930605,0.0132736027008,-0.420905154746,0.907004627843,0.0,0.0,0.0,0.0,0.0,0.0,0.0,0.0,0.0,-0.000167826432138,0.00106497106394,-0.00101358070277,0.0,0.0,0.0,0.0,0.0,0.0,0.0,0.0,0.0,0.312433662266,0.268674647436,8.61175493002,0.0,0.0,0.0,0.0,0.0,0.0,0.0,0.0,0.0
1441927241741379344,343,1441927241739641746,ardrone_base_link,-0.00226807993625,0.0132900188699,-0.420912993189,0.907000817737,0.0,0.0,0.0,0.0,0.0,0.0,0.0,0.0,0.0,-0.000687135477327,0.00292822673905,-8.31247276124e-05,0.0,0.0,0.0,0.0,0.0,0.0,0.0,0.0,0.0,0.38879584372,0.241205871105,8.61249676943,0.0,0.0,0.0,0.0,0.0,0.0,0.0,0.0,0.0
1441927241761374438,344,1441927241755087121,ardrone_base_link,-0.00227955375463,0.0132857982008,-0.420920889314,0.906997186402,0.0,0.0,0.0,0.0,0.0,0.0,0.0,0.0,0.0,-0.000939880711032,0.00143985545718,-0.00106113243195,0.0,0.0,0.0,0.0,0.0,0.0,0.0,0.0,0.0,0.401277802885,0.174027365819,8.61328125,0.0,0.0,0.0,0.0,0.0,0.0,0.0,0.0,0.0
1441927241781209222,345,1441927241774767887,ardrone_base_link,-0.00229526771349,0.0132931645869,-0.420928568059,0.906993475232,0.0,0.0,0.0,0.0,0.0,0.0,0.0,0.0,0.0,-0.000263188729463,0.00211298983332,-0.000669645153999,0.0,0.0,0.0,0.0,0.0,0.0,0.0,0.0,0.0,0.400419357419,0.182347868755,8.61340099573,0.0,0.0,0.0,0.0,0.0,0.0,0.0,0.0,0.0
1441927241801228667,346,1441927241800004316,ardrone_base_link,-0.00232624624059,0.0132883762646,-0.420936333969,0.906989862335,0.0,0.0,0.0,0.0,0.0,0.0,0.0,0.0,0.0,0.00025966995638,0.000819764084496,-0.00139951103768,0.0,0.0,0.0,0.0,0.0,0.0,0.0,0.0,0.0,0.396583587676,0.179894359037,8.61338639259,0.0,0.0,0.0,0.0,0.0,0.0,0.0,0.0,0.0
1441927241821123782,347,1441927241819855753,ardrone_base_link,-0.00233037023193,0.0132999837725,-0.420944057053,0.906986097268,0.0,0.0,0.0,0.0,0.0,0.0,0.0,0.0,0.0,0.000554953352752,0.000552367888886,-0.000169202452873,0.0,0.0,0.0,0.0,0.0,0.0,0.0,0.0,0.0,0.361357277632,0.194656762481,8.61301780939,0.0,0.0,0.0,0.0,0.0,0.0,0.0,0.0,0.0
1441927241841313131,348,1441927241834894484,ardrone_base_link,-0.0023382850852,0.0133036571585,-0.420943940974,0.906986076898,0.0,0.0,0.0,0.0,0.0,0.0,0.0,0.0,0.0,-0.00126877817727,0.00152910217181,-0.00124349479187,0.0,0.0,0.0,0.0,0.0,0.0,0.0,0.0,0.0,0.403211805969,0.210324670002,8.61300379038,0.0,0.0,0.0,0.0,0.0,0.0,0.0,0.0,0.0
1441927241861111138,349,1441927241860235913,ardrone_base_link,-0.00231374314241,0.0132731752943,-0.420960429335,0.906978933793,0.0,0.0,0.0,0.0,0.0,0.0,0.0,0.0,0.0,-0.000649989906987,0.00076935810464,-0.00221048766593,0.0,0.0,0.0,0.0,0.0,0.0,0.0,0.0,0.0,0.400739056617,0.261383647472,8.61234840155,0.0,0.0,0.0,0.0,0.0,0.0,0.0,0.0,0.0
1441927241881129300,350,1441927241880286543,ardrone_base_link,-0.00230938778016,0.0132616072683,-0.420968557106,0.906975341687,0.0,0.0,0.0,0.0,0.0,0.0,0.0,0.0,0.0,-0.00107073970749,0.0013937405086,-0.000459698953762,0.0,0.0,0.0,0.0,0.0,0.0,0.0,0.0,0.0,0.394098498672,0.263016205281,8.61231452227,0.0,0.0,0.0,0.0,0.0,0.0,0.0,0.0,0.0
1441927241901092067,351,1441927241900016716,ardrone_base_link,-0.00231306250542,0.013253693604,-0.420968658491,0.906975400943,0.0,0.0,0.0,0.0,0.0,0.0,0.0,0.0,0.0,-0.000814469556443,0.00155152421951,-0.000406218927915,0.0,0.0,0.0,0.0,0.0,0.0,0.0,0.0,0.0,0.39743834585,0.187878770754,8.613276577,0.0,0.0,0.0,0.0,0.0,0.0,0.0,0.0,0.0
1441927241921174353,352,1441927241920040588,ardrone_base_link,-0.00234460629071,0.0132684086695,-0.420976106089,0.906971647988,0.0,0.0,0.0,0.0,0.0,0.0,0.0,0.0,0.0,-0.00171875109906,0.00189584870944,-0.000416652199501,0.0,0.0,0.0,0.0,0.0,0.0,0.0,0.0,0.0,0.396830453724,0.189197215065,8.68215373755,0.0,0.0,0.0,0.0,0.0,0.0,0.0,0.0,0.0
1441927241941405821,353,1441927241935486464,ardrone_base_link,-0.00235619625269,0.0132641677629,-0.420976091996,0.906971686526,0.0,0.0,0.0,0.0,0.0,0.0,0.0,0.0,0.0,0.000407619038034,0.000613671698088,-0.000604922407745,0.0,0.0,0.0,0.0,0.0,0.0,0.0,0.0,0.0,0.396527292579,0.175402178243,8.62865601778,0.0,0.0,0.0,0.0,0.0,0.0,0.0,0.0,0.0
1441927241961314747,354,1441927241955114424,ardrone_base_link,-0.00237191042689,0.0132715359999,-0.42098377089,0.906967973536,0.0,0.0,0.0,0.0,0.0,0.0,0.0,0.0,0.0,-0.000962934349225,0.00165389064345,-0.000873115601117,0.0,0.0,0.0,0.0,0.0,0.0,0.0,0.0,0.0,0.395785307139,0.195850696787,8.62566529512,0.0,0.0,0.0,0.0,0.0,0.0,0.0,0.0,0.0
1441927241981040366,355,1441927241980437229,ardrone_base_link,-0.0023558487456,0.013264229488,-0.42099985349,0.906960657115,0.0,0.0,0.0,0.0,0.0,0.0,0.0,0.0,0.0,-0.000840609106518,0.00285692502268,-0.000800994195498,0.0,0.0,0.0,0.0,0.0,0.0,0.0,0.0,0.0,0.397364600003,0.263192392141,8.6147117734,0.0,0.0,0.0,0.0,0.0,0.0,0.0,0.0,0.0
1441927242001178932,356,1441927241999838941,ardrone_base_link,-0.00234793411416,0.0132605556141,-0.420999969225,0.906960677639,0.0,0.0,0.0,0.0,0.0,0.0,0.0,0.0,0.0,-0.00254537548907,2.87769353408e-05,0.000191335330434,0.0,0.0,0.0,0.0,0.0,0.0,0.0,0.0,0.0,0.397809083015,0.228611467779,8.61180282831,0.0,0.0,0.0,0.0,0.0,0.0,0.0,0.0,0.0
1441927242021398074,357,1441927242020214705,ardrone_base_link,-0.00237535348458,0.01326366392,-0.420999723723,0.906960674749,0.0,0.0,0.0,0.0,0.0,0.0,0.0,0.0,0.0,0.000785102744091,0.00191273117405,-0.000317743853798,0.0,0.0,0.0,0.0,0.0,0.0,0.0,0.0,0.0,0.395345752686,0.173795194179,8.61330052614,0.0,0.0,0.0,0.0,0.0,0.0,0.0,0.0,0.0
